#Step	accX	accY	posX	posY	Yaw	vX	vY	vYaw
30	2.25321	9.39737e-14	2.23432e-17	0.100366	1.5708	1.2045	-2.29172e-16	1.28048e-15
31	3.86992	1.49483e-13	8.30362e-18	0.112797	1.5708	1.2432	1.26566e-15	-1.00011e-15
32	5.21841	-6.441e-14	2.08184e-18	0.125749	1.5708	1.29539	6.21558e-16	-2.90155e-15
33	6.14539	-1.8343e-13	9.68551e-18	0.139314	1.5708	1.35684	-1.21274e-15	1.11187e-17
34	4.53515	1.46626e-14	2.34557e-17	0.153335	1.5708	1.40219	-1.06611e-15	-9.01955e-15
35	1.76716	5.29999e-14	2.8814e-17	0.167532	1.5708	1.41986	-5.36113e-16	4.68582e-15
36	0.683873	1.39259e-13	2.49991e-17	0.181799	1.5708	1.4267	8.56477e-16	-1.25834e-16
37	0.264182	1.31256e-13	9.65551e-18	0.196093	1.5708	1.42934	2.16904e-15	7.83486e-15
38	0.101805	-2.44015e-13	1.07788e-17	0.210396	1.5708	1.43036	-2.71117e-16	1.10484e-14
39	0.0385896	9.92329e-14	6.74425e-18	0.224704	1.5708	1.43075	7.21212e-16	-3.2629e-15
40	0.0133864	-4.49684e-14	7.20691e-18	0.239013	1.5708	1.43088	2.71528e-16	4.91386e-15
41	0.00280139	-5.9357e-14	8.83934e-18	0.253322	1.5708	1.43091	-3.22042e-16	5.00736e-15
42	-0.00201151	-1.81854e-14	1.22901e-17	0.267631	1.5708	1.43089	-5.03896e-16	-3.35939e-15
43	-0.00439501	1.9793e-13	-4.05235e-18	0.281941	1.5708	1.43084	1.47541e-15	-4.30119e-15
44	-0.00566307	-1.72506e-13	-3.14442e-18	0.29625	1.5708	1.43079	-2.49648e-16	-4.51784e-15
45	-0.00639559	1.19113e-13	-1.73252e-17	0.31056	1.5708	1.43072	9.41479e-16	-4.62091e-15
46	-0.00689579	1.95635e-13	-4.63036e-17	0.324869	1.5708	1.43066	2.89783e-15	-1.01979e-14
47	-0.00734066	-5.37963e-14	-6.35476e-17	0.339179	1.5708	1.43058	2.35986e-15	-2.40635e-15
48	-0.00782975	-2.43859e-13	-5.64057e-17	0.353488	1.5708	1.4305	-7.8727e-17	9.12796e-15
49	-0.00840671	-4.12539e-14	-4.67271e-17	0.367798	1.5708	1.43042	-4.91266e-16	9.45483e-15
50	-0.00907606	-1.58191e-13	-2.91727e-17	0.382107	1.5708	1.43033	-2.07318e-15	7.21947e-15
51	-0.00981934	3.18318e-13	-4.18614e-17	0.396416	1.5708	1.43023	1.11e-15	-6.72113e-15
52	-0.010609	-9.73754e-14	-4.00465e-17	0.410726	1.5708	1.43012	1.36246e-16	-4.32493e-15
53	-0.0114185	2.53449e-14	-4.55321e-17	0.425035	1.5708	1.43001	3.89696e-16	3.63225e-15
54	-0.0122278	-5.56612e-14	-4.06856e-17	0.439345	1.5708	1.42989	-1.66916e-16	-3.85188e-15
55	-0.0130252	-1.56302e-13	-2.97409e-17	0.453654	1.5708	1.42976	-1.72994e-15	4.47825e-15
56	-0.0138066	2.91788e-13	-4.00316e-17	0.467963	1.5708	1.42962	1.18794e-15	-1.29028e-14
57	-0.014573	-1.02408e-13	-3.84928e-17	0.482273	1.5708	1.42947	1.63853e-16	1.78921e-15
58	-0.0153284	-1.13309e-13	-2.88004e-17	0.496582	1.5708	1.42932	-9.69242e-16	4.57565e-15
59	1.14941	1.38755e-13	-3.29802e-17	0.511002	1.5708	1.44081	4.18313e-16	-3.04402e-16
60	1.7597	-6.21519e-14	-2.93244e-17	0.525598	1.5708	1.45841	-2.03206e-16	-1.15315e-15
61	1.58756	-4.5127e-14	-2.76922e-17	0.540355	1.5708	1.47429	-6.54476e-16	1.13705e-15
62	1.23098	-3.70823e-14	-1.57864e-17	0.555238	1.5708	1.4866	-1.0253e-15	-8.5988e-15
63	0.859451	1.38579e-13	-2.10549e-17	0.57021	1.5708	1.49519	3.60486e-16	2.11367e-15
64	0.53747	-1.96435e-14	-2.2697e-17	0.585236	1.5708	1.50057	1.64052e-16	-3.64368e-15
65	0.284456	-4.21772e-14	-2.01217e-17	0.600292	1.5708	1.50341	-2.5772e-16	-1.33823e-15
66	0.119816	1.78597e-13	-3.37337e-17	0.615359	1.5708	1.50461	1.52825e-15	-1.48143e-15
67	0.0547908	-1.82125e-14	-3.88304e-17	0.63043	1.5708	1.50516	1.34613e-15	1.12147e-15
68	0.0283845	-3.02395e-13	-2.87467e-17	0.645503	1.5708	1.50544	-1.67783e-15	1.24414e-14
69	0.0162147	1.6108e-13	-2.97503e-17	0.660576	1.5708	1.5056	-6.70295e-17	-1.13139e-14
70	0.00958066	-1.50574e-13	-1.06756e-17	0.67565	1.5708	1.5057	-1.57277e-15	-4.71929e-15
71	0.00550845	8.29177e-14	1.07592e-19	0.690724	1.5708	1.50575	-7.43595e-16	3.59994e-15
72	0.00296818	6.72356e-15	8.54495e-18	0.705798	1.5708	1.50578	-6.76359e-16	4.30855e-15
73	0.00151051	6.85678e-14	6.77846e-18	0.720871	1.5708	1.5058	9.31863e-18	3.69283e-16
74	0.000830649	-2.91843e-14	1.12774e-17	0.735945	1.5708	1.50581	-2.82524e-16	-5.24859e-15
75	0.000665444	1.61559e-13	-3.72674e-18	0.751019	1.5708	1.50581	1.33307e-15	-5.36647e-16
76	0.000791273	-5.26816e-14	-6.76865e-18	0.766093	1.5708	1.50582	8.06253e-16	-5.6733e-15
77	0.00103799	1.05685e-13	-2.03791e-17	0.781167	1.5708	1.50583	1.8631e-15	4.89684e-15
78	0.00129393	-3.18166e-13	-1.05405e-17	0.79624	1.5708	1.50584	-1.31856e-15	5.80305e-15
79	0.00149958	2.17389e-13	-1.40733e-17	0.811314	1.5708	1.50586	8.55331e-16	-7.61177e-15
80	0.00163457	-9.37714e-14	-8.22888e-18	0.826388	1.5708	1.50588	-8.23823e-17	4.98064e-15
81	0.00170304	6.91116e-14	-7.62214e-18	0.841462	1.5708	1.50589	6.08734e-16	5.87695e-15
82	0.00172105	-3.42548e-14	-1.19575e-17	0.856535	1.5708	1.50591	2.66186e-16	8.82559e-15
83	0.00170747	1.57447e-13	-2.70171e-17	0.871609	1.5708	1.50593	1.84066e-15	-4.67649e-15
84	0.0016787	1.16528e-13	-5.03824e-17	0.886683	1.5708	1.50594	3.00594e-15	2.66105e-15
85	0.0016464	-4.03372e-13	-3.5084e-17	0.901757	1.5708	1.50596	-1.02778e-15	7.01892e-15
86	0.00161734	-3.66901e-14	-1.94636e-17	0.916831	1.5708	1.50598	-1.39468e-15	3.42444e-15
87	0.0015943	2.33389e-13	-2.21616e-17	0.931904	1.5708	1.50599	9.39205e-16	-2.29804e-15
88	0.00157742	-1.69134e-13	-1.12931e-17	0.946978	1.5708	1.50601	-7.5214e-16	5.35072e-15
89	0.00156545	-3.10022e-15	-1.14636e-19	0.962052	1.5708	1.50602	-7.83142e-16	4.16813e-16
90	0.00155669	2.61852e-14	1.17924e-17	0.977126	1.5708	1.50604	-5.2129e-16	1.42274e-15
91	0.00154954	5.65461e-14	1.13507e-17	0.992199	1.5708	1.50606	4.41708e-17	7.10709e-15
92	0.00154285	2.49668e-14	1.67799e-17	1.00727	1.5708	1.50607	2.93838e-16	-3.37013e-15
93	0.00153589	-1.18638e-13	2.40318e-17	1.02235	1.5708	1.50609	-8.92538e-16	1.35357e-14
94	0.00152835	1.41563e-13	2.21479e-17	1.03742	1.5708	1.5061	5.23094e-16	-7.06612e-15
95	0.00152018	-2.87854e-14	1.64484e-17	1.05249	1.5708	1.50612	2.3524e-16	2.44077e-15
96	0.00151149	-1.46233e-14	2.05789e-17	1.06757	1.5708	1.50613	8.90074e-17	-8.10983e-15
97	0.00150244	4.45186e-14	1.18899e-17	1.08264	1.5708	1.50615	5.34193e-16	7.55446e-15
98	0.0014932	8.36632e-14	-1.81833e-18	1.09772	1.5708	1.50616	1.37083e-15	-7.79636e-15
99	0.00148388	-3.96364e-14	-8.21589e-18	1.11279	1.5708	1.50618	9.74462e-16	-3.20022e-15
100	0.00147458	-1.01599e-13	-7.80058e-18	1.12786	1.5708	1.50619	-4.15316e-17	2.35314e-15
101	0.00146532	1.01398e-13	-1.25045e-17	1.14294	1.5708	1.50621	9.72453e-16	-2.77335e-15
102	0.00145611	-8.47688e-14	-1.54257e-17	1.15801	1.5708	1.50622	1.24765e-16	7.96189e-15
103	0.00144696	8.62589e-14	-2.19522e-17	1.17308	1.5708	1.50623	9.87354e-16	-7.53593e-15
104	0.00143785	-9.46914e-14	-1.56625e-17	1.18816	1.5708	1.50625	4.04396e-17	2.34918e-15
105	0.00142875	-1.17874e-13	-4.27946e-18	1.20323	1.5708	1.50626	-1.1383e-15	8.24536e-15
106	0.00141967	9.80173e-15	7.79693e-18	1.21831	1.5708	1.50628	-1.04029e-15	-1.97075e-15
107	0.00141058	7.7934e-14	1.5427e-17	1.23338	1.5708	1.50629	-2.60947e-16	-2.74443e-15
108	0.00140149	-3.7052e-14	2.50887e-17	1.24845	1.5708	1.50631	-6.31467e-16	7.99207e-15
109	0.00139239	1.80407e-14	3.62934e-17	1.26353	1.5708	1.50632	-4.5106e-16	5.72354e-16
110	0.00138329	1.57368e-13	3.17613e-17	1.2786	1.5708	1.50633	1.12262e-15	5.78915e-15
111	0.00137419	-4.64891e-14	3.18781e-17	1.29367	1.5708	1.50635	6.57731e-16	6.22781e-15
112	0.00136508	-6.22853e-14	3.82234e-17	1.30875	1.5708	1.50636	3.48784e-17	6.20536e-15
113	0.00135597	1.52203e-13	2.76748e-17	1.32382	1.5708	1.50637	1.55691e-15	6.21955e-15
114	0.00134686	3.401e-14	1.37253e-17	1.3389	1.5708	1.50639	1.89701e-15	6.28486e-15
115	0.00133775	-1.00626e-13	8.16484e-18	1.35397	1.5708	1.5064	8.90749e-16	6.40252e-15
116	0.00132864	1.08195e-13	-3.19456e-18	1.36904	1.5708	1.50641	1.9727e-15	7.99301e-16
117	0.00131953	-1.38814e-13	-1.23872e-17	1.38412	1.5708	1.50643	5.84558e-16	1.1363e-14
118	0.00131042	1.32219e-13	-2.47605e-17	1.39919	1.5708	1.50644	1.90675e-15	-9.89356e-15
119	0.00130132	-9.88736e-14	-2.89201e-17	1.41426	1.5708	1.50645	9.1801e-16	5.12365e-15
120	0.00129221	1.45046e-13	-4.59107e-17	1.42934	1.5708	1.50647	2.36847e-15	5.75898e-15
121	0.0012831	-2.1739e-13	-4.28359e-17	1.44441	1.5708	1.50648	1.94576e-16	3.48474e-15
122	0.00127399	-9.94863e-14	-2.98125e-17	1.45949	1.5708	1.50649	-8.00286e-16	3.23046e-15
123	0.00126488	-8.15125e-14	-6.96424e-18	1.47456	1.5708	1.5065	-1.61541e-15	3.19942e-15
124	0.00125578	-9.71766e-15	1.51822e-17	1.48963	1.5708	1.50652	-1.71259e-15	3.14651e-15
125	0.00124667	1.41059e-13	2.48963e-17	1.50471	1.5708	1.50653	-3.02e-16	3.08108e-15
126	0.00123756	7.39581e-14	2.38676e-17	1.51978	1.5708	1.50654	4.37581e-16	3.27323e-15
127	0.00122845	5.56876e-14	1.22495e-17	1.53486	1.5708	1.50655	9.94457e-16	-2.29819e-15
128	0.00121934	1.26741e-13	-7.0222e-18	1.54993	1.5708	1.50657	2.26187e-15	-1.39136e-14
129	0.00121023	-1.51562e-13	-1.44847e-17	1.565	1.5708	1.50658	7.4625e-16	-4.10004e-15
130	0.00120112	9.51293e-14	-2.97866e-17	1.58008	1.5708	1.50659	1.69754e-15	-9.08058e-15
131	0.00119201	-4.41604e-14	-3.56519e-17	1.59515	1.5708	1.5066	1.25594e-15	-9.1579e-15
132	0.00118291	-1.69055e-13	-2.46117e-17	1.61022	1.5708	1.50661	-4.34614e-16	1.60544e-15
133	0.0011738	4.18951e-14	-1.77609e-17	1.6253	1.5708	1.50663	-1.5663e-17	2.49878e-15
134	0.00116469	6.13362e-14	-1.36968e-17	1.64037	1.5708	1.50664	5.97699e-16	2.93211e-15
135	0.00115558	-1.87932e-13	9.16056e-18	1.65545	1.5708	1.50665	-1.28162e-15	8.54692e-15
136	0.00114647	7.28842e-14	1.97089e-17	1.67052	1.5708	1.50666	-5.52779e-16	8.99223e-15
137	0.00113736	7.83506e-14	2.07487e-17	1.68559	1.5708	1.50667	2.30727e-16	3.88816e-15
138	0.00112825	1.19679e-13	1.14941e-17	1.70067	1.5708	1.50668	1.42752e-15	-1.92502e-15
139	0.00111914	-2.30102e-14	4.54046e-18	1.71574	1.5708	1.50669	1.19742e-15	2.77286e-15
140	0.00111003	-1.27437e-13	8.65698e-18	1.73081	1.5708	1.50671	-7.69477e-17	3.06857e-15
141	0.00110092	-6.80969e-14	1.79097e-17	1.74589	1.5708	1.50672	-7.57916e-16	-2.27709e-15
142	0.00109181	1.40337e-13	1.48022e-17	1.76096	1.5708	1.50673	6.45453e-16	-8.43158e-15
143	0.0010827	4.76427e-14	1.1951e-17	1.77604	1.5708	1.50674	1.12188e-15	-3.53497e-15
144	0.00107359	4.12388e-14	6.64947e-18	1.79111	1.5708	1.50675	1.53427e-15	7.62573e-15
145	0.00106448	-2.46118e-16	1.37255e-18	1.80618	1.5708	1.50676	1.53181e-15	8.80086e-15
146	0.00105537	-7.01385e-14	-8.6052e-18	1.82126	1.5708	1.50677	8.30422e-16	9.11156e-15
147	0.00104626	5.71679e-14	-1.59321e-17	1.83633	1.5708	1.50678	1.4021e-15	-1.2672e-14
148	0.00103715	-2.81105e-13	1.50447e-18	1.8514	1.5708	1.50679	-1.40895e-15	2.07335e-15
149	0.00102804	7.06446e-14	1.02031e-17	1.86648	1.5708	1.5068	-7.02507e-16	-2.91207e-15
150	0.00101893	1.17457e-13	1.21765e-17	1.88155	1.5708	1.50681	4.72062e-16	-8.43859e-15
151	0.00100982	-2.26045e-15	1.27025e-17	1.89663	1.5708	1.50682	4.49458e-16	1.87965e-15
152	0.00100071	-7.31286e-14	2.05414e-17	1.9117	1.5708	1.50683	-2.81828e-16	2.57579e-15
153	0.000991602	2.30097e-13	5.37054e-18	1.92677	1.5708	1.50684	2.01914e-15	2.8193e-15
154	0.000982492	1.18123e-13	-1.82656e-17	1.94185	1.5708	1.50685	3.20037e-15	3.18212e-15
155	0.000973381	-1.20166e-13	-3.15586e-17	1.95692	1.5708	1.50686	1.99871e-15	8.58079e-15
156	0.000964271	-2.07548e-13	-2.57704e-17	1.97199	1.5708	1.50687	-7.67643e-17	3.62976e-15
157	0.00095516	-3.71897e-14	-1.45897e-17	1.98707	1.5708	1.50688	-4.48661e-16	3.41347e-15
158	0.000946049	1.36344e-13	-1.70434e-17	2.00214	1.5708	1.50689	9.14783e-16	3.20658e-15
159	0.000936939	-9.69746e-14	-1.14732e-17	2.01722	1.5708	1.5069	-5.49628e-17	5.91016e-15
160	0.000927828	1.36455e-13	-1.95484e-17	2.03229	1.5708	1.50691	1.30958e-15	-4.82138e-15
161	0.000918717	1.0014e-14	-2.86251e-17	2.04736	1.5708	1.50692	1.40972e-15	-5.61946e-15
162	0.000909606	-8.87682e-14	-3.04984e-17	2.06244	1.5708	1.50693	5.2204e-16	-5.98182e-15
163	0.000900495	-1.44916e-14	-2.59021e-17	2.07751	1.5708	1.50694	3.77125e-16	-6.29143e-15
164	0.000891384	-2.66485e-14	-2.03144e-17	2.09258	1.5708	1.50695	1.1064e-16	4.59556e-15
165	0.000882273	5.33391e-15	-1.1913e-17	2.10766	1.5708	1.50695	1.63979e-16	5.60783e-15
166	0.000873162	-8.24429e-15	-7.7078e-18	2.12273	1.5708	1.50696	8.15359e-17	5.98382e-15
167	0.000864051	2.61984e-14	-4.4489e-18	2.13781	1.5708	1.50697	3.4352e-16	-4.69232e-15
168	0.00085494	-5.71599e-14	2.85245e-18	2.15288	1.5708	1.50698	-2.28078e-16	5.18152e-15
169	0.000845829	-1.28821e-14	1.64626e-17	2.16795	1.5708	1.50699	-3.56899e-16	-5.00475e-15
170	0.000836717	6.72375e-14	2.50225e-17	2.18303	1.5708	1.507	3.15475e-16	5.25985e-15
171	0.000827606	-1.33773e-14	3.49202e-17	2.1981	1.5708	1.507	1.81702e-16	6.05865e-15
172	0.000818495	4.40185e-14	3.70689e-17	2.21317	1.5708	1.50701	6.21888e-16	6.21708e-15
173	0.000809383	-2.39727e-14	3.32473e-17	2.22825	1.5708	1.50702	3.82161e-16	6.2473e-15
174	0.000800272	6.43507e-14	3.47053e-17	2.24332	1.5708	1.50703	1.02567e-15	-1.56486e-14
175	0.00079116	4.6458e-14	2.14763e-17	2.2584	1.5708	1.50704	1.49025e-15	4.36045e-15
176	0.000782049	1.53418e-13	-4.0031e-19	2.27347	1.5708	1.50704	3.02442e-15	-5.50958e-15
177	0.000772937	-1.52668e-13	-7.01009e-18	2.28854	1.5708	1.50705	1.49774e-15	4.99412e-15
178	0.000763825	-6.4893e-14	-1.04776e-17	2.30362	1.5708	1.50706	8.4881e-16	5.86746e-15
179	0.000754714	-4.7241e-14	-5.87401e-18	2.31869	1.5708	1.50707	3.764e-16	-4.91376e-15
180	0.000745602	-1.52346e-14	-1.42046e-18	2.33376	1.5708	1.50708	2.24055e-16	5.2049e-15
181	0.00073649	-3.56317e-14	4.92274e-18	2.34884	1.5708	1.50708	-1.32263e-16	5.90217e-15
182	0.000727378	-1.96407e-13	2.42126e-17	2.36391	1.5708	1.50709	-2.09634e-15	-4.84908e-15
183	0.000718266	-9.66201e-14	5.8185e-17	2.37899	1.5708	1.5071	-3.06254e-15	-1.66895e-14
184	0.000709154	1.1588e-13	8.39165e-17	2.39406	1.5708	1.5071	-1.90374e-15	-6.98352e-15
185	0.000700042	7.81914e-14	1.00155e-16	2.40913	1.5708	1.50711	-1.12182e-15	4.3409e-15
186	0.00069093	1.41943e-13	1.05547e-16	2.42421	1.5708	1.50712	2.97606e-16	-5.40941e-15
187	0.000681818	-4.40239e-14	1.15341e-16	2.43928	1.5708	1.50712	-1.42633e-16	5.02251e-15
188	0.000672706	8.33102e-15	1.24302e-16	2.45435	1.5708	1.50713	-5.93229e-17	5.66558e-15
189	0.000663594	-1.82899e-13	1.44858e-16	2.46943	1.5708	1.50714	-1.88832e-15	6.03776e-15
190	0.000654482	2.74758e-13	1.4296e-16	2.4845	1.5708	1.50714	8.59263e-16	-4.69564e-15
191	0.00064537	4.83443e-14	1.379e-16	2.49958	1.5708	1.50715	1.34271e-15	5.22917e-15
192	0.000636257	-1.59933e-13	1.45487e-16	2.51465	1.5708	1.50716	-2.56622e-16	6.01751e-15
193	0.000627145	4.70949e-14	1.48364e-16	2.52972	1.5708	1.50716	2.14326e-16	-4.74249e-15
194	0.000618033	1.45874e-13	1.38328e-16	2.5448	1.5708	1.50717	1.67307e-15	-5.55689e-15
195	0.00060892	-9.55618e-14	1.36174e-16	2.55987	1.5708	1.50718	7.17451e-16	5.00455e-15
196	0.000599808	1.17818e-14	1.31168e-16	2.57494	1.5708	1.50718	8.35269e-16	-5.09561e-15
197	0.000590695	8.87052e-14	1.15619e-16	2.59002	1.5708	1.50719	1.72232e-15	-5.89028e-15
198	0.000581583	4.62191e-14	1.00468e-16	2.60509	1.5708	1.50719	2.18451e-15	-6.08992e-15
199	0.00057247	1.4758e-13	7.05586e-17	2.62017	1.5708	1.5072	3.66031e-15	4.60365e-15
200	0.000563358	2.30786e-14	4.16888e-17	2.63524	1.5708	1.50721	3.8911e-15	5.67373e-15
201	0.000554245	-2.29397e-13	2.73911e-17	2.65031	1.5708	1.50721	1.59712e-15	6.11855e-15
202	0.000545133	-2.70953e-14	1.58029e-17	2.66539	1.5708	1.50722	1.32617e-15	-4.89819e-15
203	0.00053602	-2.32984e-14	6.54459e-18	2.68046	1.5708	1.50722	1.09318e-15	-5.74335e-15
204	0.000526907	9.37023e-14	-5.38987e-18	2.69553	1.5708	1.50723	2.03021e-15	-6.12552e-15
205	0.000517794	-1.67567e-13	-7.26171e-18	2.71061	1.5708	1.50723	3.54537e-16	4.82941e-15
206	0.000508682	-5.48825e-14	-3.64531e-18	2.72568	1.5708	1.50724	-1.94288e-16	-5.35717e-15
207	0.000499569	-8.76712e-15	4.19486e-18	2.74076	1.5708	1.50724	-2.81959e-16	-5.86072e-15
208	0.000490456	1.90482e-13	-5.33969e-18	2.75583	1.5708	1.50725	1.62287e-15	-6.02941e-15
209	0.000481343	7.44468e-14	-2.06454e-17	2.7709	1.5708	1.50725	2.36733e-15	4.6226e-15
210	0.00047223	-2.12144e-13	-2.14308e-17	2.78598	1.5708	1.50726	2.45892e-16	5.68316e-15
211	0.000463117	-5.76631e-14	-1.47764e-17	2.80105	1.5708	1.50726	-3.30739e-16	-4.98278e-15
212	0.000454004	-1.15341e-13	1.73863e-18	2.81613	1.5708	1.50727	-1.48415e-15	-5.86554e-15
213	0.000444891	7.08379e-14	1.28434e-17	2.8312	1.5708	1.50727	-7.75768e-16	-6.03191e-15
214	0.000435778	4.78105e-14	1.9167e-17	2.84627	1.5708	1.50727	-2.97663e-16	-6.29398e-15
215	0.000426665	-1.22017e-14	2.83844e-17	2.86135	1.5708	1.50728	-4.19681e-16	-6.34605e-15
216	0.000417552	-5.5422e-14	4.14705e-17	2.87642	1.5708	1.50728	-9.73901e-16	-6.43836e-15
217	0.000408439	2.21146e-13	3.74625e-17	2.89149	1.5708	1.50729	1.23756e-15	-6.35455e-15
218	0.000399326	-1.31671e-14	3.47713e-17	2.90657	1.5708	1.50729	1.10588e-15	4.53873e-15
219	0.000390213	-7.31872e-14	2.93577e-17	2.92164	1.5708	1.5073	3.74012e-16	5.58303e-15
220	0.0003811	7.77826e-14	2.45334e-17	2.93672	1.5708	1.5073	1.15184e-15	-1.60066e-14
221	0.000371987	-4.99875e-14	2.30343e-17	2.95179	1.5708	1.5073	6.51964e-16	4.1714e-15
222	0.000362874	2.29198e-14	2.09168e-17	2.96686	1.5708	1.50731	8.81162e-16	-5.34379e-15
223	0.00035376	-9.99217e-14	2.54444e-17	2.98194	1.5708	1.50731	-1.18055e-16	5.03682e-15
224	0.000344647	2.35043e-13	9.81474e-18	2.99701	1.5708	1.50731	2.23238e-15	-5.33311e-15
225	0.000335534	1.70855e-15	-9.33282e-18	3.01208	1.5708	1.50732	2.24946e-15	5.16188e-15
226	0.000326421	-1.34543e-13	-1.83731e-17	3.02716	1.5708	1.50732	9.04032e-16	-5.06596e-15
227	0.000317307	-1.57525e-14	-1.74706e-17	3.04223	1.5708	1.50732	7.46507e-16	-1.67356e-14
228	0.000308194	-1.07381e-13	-7.50344e-18	3.05731	1.5708	1.50733	-3.27304e-16	3.93797e-15
229	0.000299081	-2.61877e-14	6.18951e-20	3.07238	1.5708	1.50733	-5.89181e-16	5.22059e-15
230	0.000289967	1.4569e-13	-1.02888e-17	3.08745	1.5708	1.50733	8.67717e-16	-4.99962e-15
231	0.000280854	-1.00597e-14	-1.29394e-17	3.10253	1.5708	1.50733	7.6712e-16	-1.68746e-14
232	0.000271741	-6.14685e-14	-7.76968e-18	3.1176	1.5708	1.50734	1.52435e-16	-7.13402e-15
233	0.000262627	-1.07008e-14	-3.20337e-18	3.13267	1.5708	1.50734	4.54271e-17	4.18403e-15
234	0.000253514	2.36388e-13	-1.89288e-17	3.14775	1.5708	1.50734	2.4093e-15	-5.33503e-15
235	0.0002444	-6.06372e-14	-3.36111e-17	3.16282	1.5708	1.50735	1.80293e-15	5.04473e-15
236	0.000235287	-1.37606e-13	-3.28592e-17	3.1779	1.5708	1.50735	4.26871e-16	-5.33418e-15
237	0.000226173	-9.55248e-14	-2.42284e-17	3.19297	1.5708	1.50735	-5.28377e-16	-5.7959e-15
238	0.00021706	-1.33861e-15	-8.7696e-18	3.20804	1.5708	1.50735	-5.41763e-16	-6.18598e-15
239	0.000207946	-3.00985e-14	6.35197e-18	3.22312	1.5708	1.50735	-8.42747e-16	4.74676e-15
240	0.000198833	1.09636e-13	8.83638e-18	3.23819	1.5708	1.50736	2.53616e-16	5.4998e-15
241	0.000189719	-8.37325e-14	1.9694e-17	3.25326	1.5708	1.50736	-5.83709e-16	-4.86305e-15
242	0.000180606	1.50855e-13	1.37926e-17	3.26834	1.5708	1.50736	9.24846e-16	-5.70939e-15
243	0.000171492	3.29899e-14	6.26575e-18	3.28341	1.5708	1.50736	1.25475e-15	-6.16061e-15
244	0.000162379	-8.12335e-14	5.18869e-18	3.29849	1.5708	1.50736	4.4241e-16	-6.19532e-15
245	0.000153265	-5.91803e-14	1.17032e-17	3.31356	1.5708	1.50736	-1.49392e-16	-6.32173e-15
246	0.000144152	1.73301e-13	2.56114e-18	3.32863	1.5708	1.50737	1.58362e-15	-6.34184e-15
247	0.000135038	-1.65333e-13	1.32994e-17	3.34371	1.5708	1.50737	-6.9716e-17	4.52146e-15
248	0.000125925	3.98239e-14	1.83818e-17	3.35878	1.5708	1.50737	3.28523e-16	5.57729e-15
249	0.000116811	5.65986e-15	2.45718e-17	3.37385	1.5708	1.50737	3.85122e-16	5.92121e-15
250	0.000107697	8.97406e-14	2.17876e-17	3.38893	1.5708	1.50737	1.28253e-15	6.20345e-15
251	9.85838e-05	-5.20868e-14	1.58445e-17	3.404	1.5708	1.50737	7.6166e-16	6.2679e-15
252	8.94702e-05	-3.63915e-14	1.52141e-17	3.41908	1.5708	1.50737	3.97745e-16	-4.71231e-15
253	8.03566e-05	-2.03774e-15	1.3114e-17	3.43415	1.5708	1.50737	3.77368e-16	-5.71525e-15
254	7.1243e-05	-3.57841e-15	1.47187e-17	3.44922	1.5708	1.50737	3.41584e-16	-6.11225e-15
255	6.21294e-05	3.47867e-14	1.45183e-17	3.4643	1.5708	1.50737	6.89451e-16	-6.08196e-15
256	5.30157e-05	-7.91886e-14	2.39103e-17	3.47937	1.5708	1.50738	-1.02435e-16	4.56361e-15
257	4.39021e-05	-5.26882e-14	3.1877e-17	3.49444	1.5708	1.50738	-6.29317e-16	5.66234e-15
258	3.47885e-05	9.83543e-14	3.00082e-17	3.50952	1.5708	1.50738	3.54226e-16	-4.97664e-15
259	2.56748e-05	8.84936e-14	1.92901e-17	3.52459	1.5708	1.50738	1.23916e-15	-5.80646e-15
260	1.65612e-05	-2.28845e-13	3.98241e-17	3.53967	1.5708	1.50738	-1.04929e-15	-6.17517e-15
261	7.44757e-06	1.01005e-13	5.02576e-17	3.55474	1.5708	1.50738	-3.92342e-17	4.84408e-15
262	-1.66607e-06	-1.15752e-13	6.89193e-17	3.56981	1.5708	1.50738	-1.19675e-15	5.68482e-15
263	-1.07797e-05	2.51594e-13	6.24215e-17	3.58489	1.5708	1.50738	1.31918e-15	5.99856e-15
264	-1.98933e-05	-7.51789e-14	6.51152e-17	3.59996	1.5708	1.50738	5.67394e-16	6.26365e-15
265	-2.9007e-05	1.04285e-13	5.23598e-17	3.61503	1.5708	1.50738	1.61025e-15	6.39042e-15
266	-3.81206e-05	-5.02331e-14	4.63012e-17	3.63011	1.5708	1.50738	1.10791e-15	-4.76963e-15
267	-4.72342e-05	-5.76516e-14	4.43343e-17	3.64518	1.5708	1.50738	5.31399e-16	-5.49888e-15
268	-5.63479e-05	1.55001e-13	2.85407e-17	3.66026	1.5708	1.50737	2.08141e-15	-6.15376e-15
269	-6.54615e-05	1.31955e-13	4.5723e-18	3.67533	1.5708	1.50737	3.40096e-15	-6.15899e-15
270	-7.45751e-05	-3.74214e-13	1.13311e-17	3.6904	1.5708	1.50737	-3.41177e-16	4.76661e-15
271	-8.36887e-05	1.77534e-13	7.03062e-18	3.70548	1.5708	1.50737	1.43416e-15	-5.44698e-15
272	-9.28023e-05	-9.86554e-14	5.90157e-18	3.72055	1.5708	1.50737	4.4761e-16	5.04337e-15
273	-0.000101916	-5.41707e-14	1.68837e-17	3.73562	1.5708	1.50737	-9.40971e-17	-5.25813e-15
274	-0.00011103	1.33466e-13	1.45192e-17	3.7507	1.5708	1.50737	1.24057e-15	5.03521e-15
275	-0.000120143	-1.50449e-13	2.05055e-17	3.76577	1.5708	1.50737	-2.63924e-16	5.78619e-15
276	-0.000129257	-1.70883e-14	2.98741e-17	3.78085	1.5708	1.50737	-4.34807e-16	-4.77306e-15
277	-0.00013837	1.92415e-13	2.00012e-17	3.79592	1.5708	1.50737	1.48934e-15	-5.64677e-15
278	-0.000147484	1.31419e-14	1.21612e-17	3.81099	1.5708	1.50736	1.62076e-15	-6.00162e-15
279	-0.000156597	-1.20493e-14	2.17913e-18	3.82607	1.5708	1.50736	1.50027e-15	4.71659e-15
280	-0.000165711	-1.21823e-14	-4.91123e-18	3.84114	1.5708	1.50736	1.37845e-15	-5.21381e-15
281	-0.000174825	-2.20107e-15	-5.08739e-18	3.85622	1.5708	1.50736	1.35643e-15	4.97313e-15
282	-0.000183938	-2.13718e-13	1.44347e-17	3.87129	1.5708	1.50736	-7.80746e-16	1.69548e-14
283	-0.000193052	-2.18515e-13	4.74407e-17	3.88636	1.5708	1.50736	-2.96589e-15	7.03534e-15
284	-0.000202165	2.9953e-13	5.21672e-17	3.90144	1.5708	1.50735	2.94054e-17	-4.41315e-15
285	-0.000211279	1.68e-14	5.85608e-17	3.91651	1.5708	1.50735	1.97406e-16	-5.55377e-15
286	-0.000220392	3.09659e-14	6.52048e-17	3.93158	1.5708	1.50735	5.07065e-16	5.08575e-15
287	-0.000229506	-1.05769e-13	7.40581e-17	3.94666	1.5708	1.50735	-5.50621e-16	5.80908e-15
288	-0.000238619	2.25019e-13	6.543e-17	3.96173	1.5708	1.50734	1.69956e-15	-4.7987e-15
289	-0.000247732	-1.06818e-13	6.41368e-17	3.97681	1.5708	1.50734	6.31383e-16	5.29191e-15
290	-0.000256846	1.76031e-13	4.6914e-17	3.99188	1.5708	1.50734	2.39169e-15	-5.17408e-15
291	-0.000265959	-1.63543e-13	4.93925e-17	4.00695	1.5708	1.50734	7.56263e-16	5.05443e-15
292	-0.000275073	7.7534e-14	3.40765e-17	4.02203	1.5708	1.50733	1.5316e-15	1.13028e-14
293	-0.000284186	8.29105e-15	2.46254e-17	4.0371	1.5708	1.50733	1.61451e-15	-2.08306e-14
294	-0.000293299	-7.5605e-14	2.60819e-17	4.05217	1.5708	1.50733	8.58464e-16	-1.2452e-14
295	-0.000302413	1.3276e-13	1.5936e-17	4.06725	1.5708	1.50732	2.18606e-15	9.29943e-15
296	-0.000311526	4.12733e-15	7.05077e-18	4.08232	1.5708	1.50732	2.22734e-15	4.34392e-16
297	-0.000320639	-1.12253e-13	6.04386e-18	4.0974	1.5708	1.50732	1.10481e-15	6.2914e-17
298	-0.000329753	5.42474e-14	1.28572e-18	4.11247	1.5708	1.50732	1.64728e-15	7.10125e-17
299	-0.000338866	-1.25583e-13	4.06533e-18	4.12754	1.5708	1.50731	3.91448e-16	9.11653e-17
300	-0.000347979	4.23046e-14	1.26556e-17	4.14262	1.5708	1.50731	8.14494e-16	-2.1831e-14
301	-0.000357092	-1.85336e-14	2.47728e-17	4.15769	1.5708	1.5073	6.29158e-16	-1.85984e-15
302	-0.000366206	-4.07397e-14	4.0964e-17	4.17276	1.5708	1.5073	2.21761e-16	-7.54594e-16
303	-0.000375319	1.61638e-14	5.21917e-17	4.18784	1.5708	1.5073	3.83399e-16	-2.6176e-16
304	-0.000384432	-8.52861e-14	6.8601e-17	4.20291	1.5708	1.50729	-4.69462e-16	-2.04959e-16
305	-0.000393545	2.09054e-13	6.7452e-17	4.21799	1.5708	1.50729	1.62107e-15	-5.60491e-17
306	-0.000402658	1.60519e-14	6.80448e-17	4.23306	1.5708	1.50729	1.78159e-15	-4.71684e-17
307	-0.000411771	6.47796e-14	5.88126e-17	4.24813	1.5708	1.50728	2.42939e-15	7.05458e-19
308	-0.000420884	3.41767e-14	4.28158e-17	4.26321	1.5708	1.50728	2.77116e-15	-5.49122e-17
309	-0.000429997	9.02352e-14	2.6163e-17	4.27828	1.5708	1.50727	3.67351e-15	-1.36949e-16
310	-0.00043911	-3.02419e-13	3.3058e-17	4.29335	1.5708	1.50727	6.4932e-16	2.23643e-16
311	-0.000448223	1.3757e-13	2.78695e-17	4.30843	1.5708	1.50726	2.02502e-15	-1.14641e-16
312	-0.000457336	-6.25609e-14	3.06107e-17	4.3235	1.5708	1.50726	1.39941e-15	-1.27907e-16
313	-0.000466449	-8.23447e-14	4.32598e-17	4.33858	1.5708	1.50725	5.75961e-16	-1.11968e-16
314	-0.000475562	4.92297e-14	5.43331e-17	4.35365	1.5708	1.50725	1.06826e-15	-1.00624e-16
315	-0.000484675	1.33781e-13	5.03547e-17	4.36872	1.5708	1.50725	2.40607e-15	-5.40606e-17
316	-0.000493788	-6.83199e-14	4.98613e-17	4.3838	1.5708	1.50724	1.72287e-15	-5.63951e-17
317	-0.000502901	3.60995e-14	4.40844e-17	4.39887	1.5708	1.50724	2.08386e-15	-1.06035e-16
318	-0.000512013	-4.0764e-14	4.07104e-17	4.41394	1.5708	1.50723	1.67622e-15	-1.35564e-16
319	-0.000521126	1.71879e-13	2.51691e-17	4.42902	1.5708	1.50723	3.39501e-15	4.21919e-17
320	-0.000530239	-1.69337e-13	2.15409e-17	4.44409	1.5708	1.50722	1.70164e-15	7.90814e-17
321	-0.000539352	-6.86087e-14	2.31e-17	4.45917	1.5708	1.50721	1.01555e-15	3.10199e-17
322	-0.000548464	2.11996e-13	6.80663e-18	4.47424	1.5708	1.50721	3.13551e-15	2.10815e-17
323	-0.000557577	-2.97584e-13	2.02717e-17	4.48931	1.5708	1.5072	1.59669e-16	6.16315e-17
324	-0.000566689	1.43924e-13	2.26913e-17	4.50439	1.5708	1.5072	1.59891e-15	1.05585e-16
325	-0.000575802	3.98173e-14	2.44763e-17	4.51946	1.5708	1.50719	1.99708e-15	1.47872e-16
326	-0.000584915	-1.54619e-13	3.33556e-17	4.53453	1.5708	1.50719	4.50895e-16	-4.9538e-17
327	-0.000594027	1.21947e-13	3.33872e-17	4.54961	1.5708	1.50718	1.67037e-15	-1.41208e-16
328	-0.000603139	7.104e-16	3.50212e-17	4.56468	1.5708	1.50717	1.67747e-15	1.07145e-16
329	-0.000612252	-2.44684e-15	3.85735e-17	4.57976	1.5708	1.50717	1.653e-15	1.21319e-16
330	-0.000621364	-3.02096e-14	4.34732e-17	4.59483	1.5708	1.50716	1.35091e-15	1.72452e-16
331	-0.000630477	-9.15117e-14	5.58506e-17	4.6099	1.5708	1.50716	4.35788e-16	-8.73724e-17
332	-0.000639589	7.04974e-14	6.28517e-17	4.62498	1.5708	1.50715	1.14076e-15	-1.22374e-16
333	-0.000648701	4.52166e-14	6.19842e-17	4.64005	1.5708	1.50714	1.59293e-15	-1.01826e-16
334	-0.000657813	-5.17981e-14	6.12758e-17	4.65512	1.5708	1.50714	1.07495e-15	-1.39987e-16
335	-0.000666926	6.20106e-14	6.44076e-17	4.6702	1.5708	1.50713	1.69505e-15	2.00916e-17
336	-0.000676038	-3.30244e-13	9.72168e-17	4.68527	1.5708	1.50712	-1.60739e-15	1.3064e-16
337	-0.00068515	-1.5143e-13	1.46842e-16	4.70035	1.5708	1.50712	-3.12169e-15	1.09329e-16
338	-0.000694262	1.46592e-13	1.81809e-16	4.71542	1.5708	1.50711	-1.65577e-15	1.37821e-16
339	-0.000703374	3.48367e-14	2.11618e-16	4.73049	1.5708	1.5071	-1.3074e-15	-1.10211e-16
340	-0.000712486	1.19163e-13	2.31185e-16	4.74557	1.5708	1.50709	-1.15771e-16	-1.0506e-16
341	-0.000721598	5.72472e-14	2.50047e-16	4.76064	1.5708	1.50709	4.567e-16	-8.03176e-17
342	-0.00073071	-4.17803e-14	2.63046e-16	4.77571	1.5708	1.50708	3.88979e-17	2.18248e-14
343	-0.000739822	1.0568e-13	2.65477e-16	4.79079	1.5708	1.50707	1.0957e-15	1.86041e-15
344	-0.000748933	7.04683e-14	2.59188e-16	4.80586	1.5708	1.50707	1.80038e-15	7.62888e-16
345	-0.000758045	-6.38696e-14	2.6096e-16	4.82094	1.5708	1.50706	1.16168e-15	2.70703e-16
346	-0.000767157	2.21744e-14	2.60514e-16	4.83601	1.5708	1.50705	1.38343e-15	1.96053e-16
347	-0.000776268	3.24174e-14	2.60173e-16	4.85108	1.5708	1.50704	1.7076e-15	-7.76093e-18
348	-0.00078538	-1.29957e-13	2.66134e-16	4.86616	1.5708	1.50703	4.08034e-16	3.87136e-17
349	-0.000794492	8.59048e-14	2.6183e-16	4.88123	1.5708	1.50703	1.26708e-15	-5.18158e-17
350	-0.000803603	7.42429e-14	2.51776e-16	4.89631	1.5708	1.50702	2.00951e-15	-2.19205e-14
351	-0.000812715	6.04148e-14	2.35681e-16	4.91138	1.5708	1.50701	2.61366e-15	8.79225e-15
352	-0.000821826	-7.42303e-14	2.28682e-16	4.92645	1.5708	1.507	1.87136e-15	1.09363e-14
353	-0.000830937	-1.17852e-13	2.28448e-16	4.94153	1.5708	1.50699	6.92832e-16	1.2151e-14
354	-0.000840049	6.92414e-14	2.29657e-16	4.9566	1.5708	1.50699	1.38525e-15	-9.45338e-15
355	-0.00084916	-2.0091e-13	2.40916e-16	4.97167	1.5708	1.50698	-6.2385e-16	2.15611e-14
356	-0.000858271	1.55349e-13	2.3664e-16	4.98675	1.5708	1.50697	9.2964e-16	1.63762e-15
357	-0.000867382	-2.85036e-14	2.36888e-16	5.00182	1.5708	1.50696	6.44604e-16	6.29608e-16
358	-0.000876494	1.25112e-13	2.26299e-16	5.01689	1.5708	1.50695	1.89572e-15	3.70551e-16
359	-0.000885605	-1.33051e-13	2.23994e-16	5.03197	1.5708	1.50694	5.65216e-16	2.05455e-16
360	-0.000894716	7.52508e-14	2.19184e-16	5.04704	1.5708	1.50693	1.31772e-15	-5.454e-17
361	-0.000903827	-1.23311e-13	2.26706e-16	5.06212	1.5708	1.50692	8.46155e-17	3.1307e-17
362	-0.000912937	4.60641e-14	2.29621e-16	5.07719	1.5708	1.50691	5.45256e-16	7.37878e-17
363	-0.000922048	-1.12344e-13	2.40423e-16	5.09226	1.5708	1.50691	-5.78185e-16	1.18581e-16
364	-0.000931159	6.85222e-15	2.52214e-16	5.10734	1.5708	1.5069	-5.09663e-16	5.30156e-17
365	-0.00094027	1.49885e-14	2.64179e-16	5.12241	1.5708	1.50689	-3.59778e-16	6.29532e-17
366	-0.00094938	-6.25414e-14	2.80725e-16	5.13749	1.5708	1.50688	-9.85192e-16	7.736e-17
367	-0.000958491	3.12184e-13	2.67726e-16	5.15256	1.5708	1.50687	2.13665e-15	6.58694e-17
368	-0.000967602	-3.06516e-15	2.55034e-16	5.16763	1.5708	1.50686	2.106e-15	7.64782e-17
369	-0.000976712	7.05677e-15	2.39962e-16	5.18271	1.5708	1.50685	2.17657e-15	8.60434e-17
370	-0.000985823	-7.24984e-14	2.30467e-16	5.19778	1.5708	1.50684	1.45158e-15	6.10367e-17
371	-0.000994933	-6.45381e-14	2.29099e-16	5.21285	1.5708	1.50683	8.06202e-16	3.57664e-17
372	-0.00100404	-3.35604e-14	2.32761e-16	5.22793	1.5708	1.50682	4.70598e-16	6.72424e-17
373	-0.00101315	-1.38798e-13	2.53649e-16	5.243	1.5708	1.50681	-9.17382e-16	7.79467e-17
374	-0.00102226	1.61642e-13	2.51679e-16	5.25808	1.5708	1.5068	6.99034e-16	2.20138e-14
375	-0.00103137	1.23214e-13	2.37388e-16	5.27315	1.5708	1.50679	1.93118e-15	-8.85137e-15
376	-0.00104048	1.37297e-14	2.25071e-16	5.28822	1.5708	1.50678	2.06847e-15	-1.10453e-14
377	-0.00104959	-7.55187e-14	2.16959e-16	5.3033	1.5708	1.50677	1.31329e-15	-9.92969e-16
378	-0.0010587	-7.76329e-14	2.19957e-16	5.31837	1.5708	1.50676	5.36957e-16	-4.3002e-16
379	-0.00106781	3.52221e-14	2.19433e-16	5.33344	1.5708	1.50675	8.89178e-16	-5.92084e-17
380	-0.00107692	-2.11881e-13	2.3675e-16	5.34852	1.5708	1.50673	-1.22964e-15	-1.08437e-16
381	-0.00108603	2.08413e-13	2.38246e-16	5.36359	1.5708	1.50672	8.5449e-16	-1.48268e-16
382	-0.00109514	9.32731e-14	2.25394e-16	5.37867	1.5708	1.50671	1.78722e-15	2.19603e-14
383	-0.00110425	-4.57879e-14	2.15448e-16	5.39374	1.5708	1.5067	1.32934e-15	2.0714e-15
384	-0.00111336	-4.76779e-14	2.16963e-16	5.40881	1.5708	1.50669	8.52564e-16	7.65488e-16
385	-0.00112247	-1.11287e-13	2.2124e-16	5.42389	1.5708	1.50668	-2.60303e-16	2.22265e-14
386	-0.00113158	-7.40433e-14	2.31247e-16	5.43896	1.5708	1.50667	-1.00074e-15	2.16699e-15
387	-0.00114069	2.08273e-13	2.22101e-16	5.45403	1.5708	1.50666	1.082e-15	9.19038e-16
388	-0.0011498	9.70671e-14	2.01574e-16	5.46911	1.5708	1.50665	2.05267e-15	5.3107e-16
389	-0.00115891	-1.45542e-13	1.97275e-16	5.48418	1.5708	1.50663	5.97247e-16	1.46748e-16
390	-0.00116802	-1.12794e-13	2.00909e-16	5.49926	1.5708	1.50662	-5.30692e-16	-2.6567e-17
391	-0.00117713	-2.50606e-14	2.05375e-16	5.51433	1.5708	1.50661	-7.81299e-16	1.46484e-17
392	-0.00118624	1.64935e-13	2.03388e-16	5.5294	1.5708	1.5066	8.68049e-16	-2.18281e-14
393	-0.00119535	-9.84653e-14	2.07901e-16	5.54448	1.5708	1.50659	-1.16604e-16	9.08943e-15
394	-0.00120445	-1.11905e-13	2.21931e-16	5.55955	1.5708	1.50657	-1.23565e-15	1.09805e-14
395	-0.00121356	-7.67988e-15	2.31709e-16	5.57462	1.5708	1.50656	-1.31245e-15	1.19158e-14
396	-0.00122267	2.07265e-13	2.2578e-16	5.5897	1.5708	1.50655	7.60196e-16	-9.48746e-15
397	-0.00123178	-1.36392e-13	2.25124e-16	5.60477	1.5708	1.50654	-6.03726e-16	2.14632e-14
398	-0.00124089	-4.15964e-14	2.26953e-16	5.61985	1.5708	1.50653	-1.01969e-15	-9.05548e-15
399	-0.00125	-2.22272e-14	2.32678e-16	5.63492	1.5708	1.50651	-1.24196e-15	-1.13512e-14
400	-0.00125911	1.21464e-13	2.34625e-16	5.64999	1.5708	1.5065	-2.73176e-17	-1.20657e-14
401	-0.00126821	1.32011e-13	2.23371e-16	5.66507	1.5708	1.50649	1.29279e-15	9.60319e-15
402	-0.00127732	-3.12575e-14	2.16916e-16	5.68014	1.5708	1.50647	9.80214e-16	5.27961e-16
403	-0.00128643	-1.43418e-13	2.18108e-16	5.69521	1.5708	1.50646	-4.5397e-16	1.99852e-16
404	-0.00129554	-1.82659e-15	2.27851e-16	5.71029	1.5708	1.50645	-4.72236e-16	-2.1878e-14
405	-0.00130465	5.73784e-14	2.28509e-16	5.72536	1.5708	1.50644	1.01549e-16	-1.90868e-15
406	-0.00131375	-4.60903e-14	2.32103e-16	5.74044	1.5708	1.50642	-3.59355e-16	-8.79943e-16
407	-0.00132286	-2.23386e-14	2.39604e-16	5.75551	1.5708	1.50641	-5.82741e-16	-4.2544e-16
408	-0.00133197	-6.80273e-14	2.52234e-16	5.77058	1.5708	1.5064	-1.26301e-15	-6.229e-17
409	-0.00134108	1.60011e-13	2.53883e-16	5.78566	1.5708	1.50638	3.37092e-16	-1.42465e-16
410	-0.00135019	2.31977e-15	2.56975e-16	5.80073	1.5708	1.50637	3.6029e-16	1.56709e-16
411	-0.00135929	1.8944e-13	2.36101e-16	5.8158	1.5708	1.50636	2.25469e-15	-4.86228e-17
412	-0.0013684	1.85988e-14	2.16715e-16	5.83088	1.5708	1.50634	2.44068e-15	-1.46717e-16
413	-0.00137751	-4.16226e-14	2.01491e-16	5.84595	1.5708	1.50633	2.02445e-15	1.39959e-16
414	-0.00138662	-9.40228e-14	1.93996e-16	5.86103	1.5708	1.50631	1.08422e-15	-9.35076e-17
415	-0.00139572	6.38235e-15	1.8921e-16	5.8761	1.5708	1.5063	1.14805e-15	-1.10979e-16
416	-0.00140483	-1.22868e-13	1.91689e-16	5.89117	1.5708	1.50629	-8.06362e-17	-1.07989e-16
417	-0.00141394	-5.71046e-14	2.03227e-16	5.90625	1.5708	1.50627	-6.51682e-16	-1.91119e-16
418	-0.00142304	-1.25357e-14	2.12671e-16	5.92132	1.5708	1.50626	-7.77039e-16	6.6323e-17
419	-0.00143215	1.58258e-13	2.07962e-16	5.93639	1.5708	1.50624	8.05545e-16	1.36812e-17
420	-0.00144126	1.10811e-13	1.9552e-16	5.95147	1.5708	1.50623	1.91366e-15	6.93863e-17
421	-0.00145036	-2.28094e-13	1.99193e-16	5.96654	1.5708	1.50621	-3.67281e-16	9.05332e-17
422	-0.00145947	6.13842e-14	2.05095e-16	5.98162	1.5708	1.5062	2.46562e-16	-1.1235e-17
423	-0.00146858	4.61245e-15	2.05515e-16	5.99669	1.5708	1.50619	2.92686e-16	1.02137e-16
424	-0.00147768	1.15692e-14	2.06452e-16	6.01176	1.5708	1.50617	4.08378e-16	1.14825e-16
425	-0.00148679	8.33148e-14	1.99057e-16	6.02684	1.5708	1.50616	1.24153e-15	1.10022e-16
426	-0.0014959	-6.49672e-14	1.98159e-16	6.04191	1.5708	1.50614	5.91853e-16	1.3337e-16
427	-0.001505	-8.86666e-14	1.99434e-16	6.05698	1.5708	1.50613	-2.94813e-16	-9.51027e-17
428	-0.00151411	1.16059e-13	1.94123e-16	6.07206	1.5708	1.50611	8.65777e-16	-1.9156e-16
429	-0.00152321	-4.33795e-14	1.89803e-16	6.08713	1.5708	1.5061	4.31982e-16	9.39264e-17
430	-0.00153232	-1.18663e-14	1.93364e-16	6.10221	1.5708	1.50608	3.13319e-16	7.19851e-17
431	-0.00154143	-7.10199e-15	1.99309e-16	6.11728	1.5708	1.50606	2.42299e-16	1.54554e-16
432	-0.00155053	3.82491e-15	2.03197e-16	6.13235	1.5708	1.50605	2.80548e-16	-1.32306e-17
433	-0.00155964	-2.05211e-13	2.22586e-16	6.14743	1.5708	1.50603	-1.77156e-15	-5.73847e-17
434	-0.00156874	-2.62823e-14	2.4293e-16	6.1625	1.5708	1.50602	-2.03438e-15	-1.415e-16
435	-0.00157785	2.32903e-13	2.43331e-16	6.17758	1.5708	1.506	2.9465e-16	9.88727e-17
436	-0.00158695	-3.15858e-14	2.45216e-16	6.19265	1.5708	1.50599	-2.12076e-17	1.3812e-16
437	-0.00159606	2.22701e-13	2.26505e-16	6.20772	1.5708	1.50597	2.2058e-15	-1.04374e-16
438	-0.00160516	-2.10725e-14	2.11575e-16	6.2228	1.5708	1.50595	1.99508e-15	-5.71249e-17
439	-0.00161427	-6.15379e-14	2.02799e-16	6.23787	1.5708	1.50594	1.3797e-15	-2.76984e-17
440	-0.00162337	-8.62993e-14	2.02652e-16	6.25294	1.5708	1.50592	5.16707e-16	-4.65468e-17
441	-0.00163248	1.45555e-13	1.89624e-16	6.26802	1.5708	1.50591	1.97226e-15	-7.13172e-17
442	-0.00164158	-4.0566e-14	1.80652e-16	6.28309	1.5708	1.50589	1.5666e-15	-5.52753e-17
443	-0.00165069	-1.39141e-13	1.83921e-16	6.29817	1.5708	1.50587	1.75187e-16	-7.43155e-17
444	-0.00165979	3.67725e-14	1.81838e-16	6.31324	1.5708	1.50586	5.42912e-16	-9.47886e-17
445	-0.0016689	-1.53166e-14	1.77941e-16	6.32831	1.5708	1.50584	3.89746e-16	-1.16801e-16
446	-0.001678	1.75962e-14	1.73957e-16	6.34339	1.5708	1.50582	5.65709e-16	-1.64329e-16
447	-0.00168711	-3.12156e-15	1.7698e-16	6.35846	1.5708	1.50581	5.34493e-16	5.0513e-17
448	-0.00169621	-1.97787e-13	1.94761e-16	6.37353	1.5708	1.50579	-1.44338e-15	1.0134e-16
449	-0.00170531	-7.04299e-14	2.19585e-16	6.38861	1.5708	1.50577	-2.14768e-15	5.36812e-17
450	-0.00171442	2.46363e-13	2.21446e-16	6.40368	1.5708	1.50575	3.1595e-16	3.84478e-17
451	-0.00172352	-1.48485e-13	2.38155e-16	6.41876	1.5708	1.50574	-1.1689e-15	-1.92785e-18
452	-0.00173263	1.16612e-13	2.39857e-16	6.43383	1.5708	1.50572	-2.7809e-18	1.81376e-17
453	-0.250303	-6.33163e-15	2.47201e-16	6.44888	1.5708	1.50322	-6.60972e-17	3.21134e-17
454	-0.169647	1.16276e-13	2.39573e-16	6.46391	1.5708	1.50152	1.09666e-15	7.65667e-18
455	-0.114424	1.00151e-14	2.34275e-16	6.47893	1.5708	1.50038	1.19681e-15	-1.21788e-16
456	-0.0776654	1.52057e-14	2.27453e-16	6.49394	1.5708	1.4996	1.34887e-15	-1.9128e-16
457	-0.052628	-1.90625e-13	2.34693e-16	6.50895	1.5708	1.49907	-5.57382e-16	-4.44044e-17
458	-0.0349185	-1.44019e-14	2.41707e-16	6.52396	1.5708	1.49872	-7.01401e-16	-2.20408e-17
459	-0.0221228	9.39747e-14	2.45986e-16	6.53896	1.5708	1.4985	2.38346e-16	4.95885e-17
460	-0.0129474	1.30459e-13	2.35552e-16	6.55396	1.5708	1.49837	1.54294e-15	1.72112e-17
461	-0.0066064	7.47165e-14	2.12651e-16	6.56896	1.5708	1.49831	2.29011e-15	-3.28091e-16
462	-0.00260874	-3.71285e-15	1.98448e-16	6.58396	1.5708	1.49828	2.25298e-15	-1.82876e-16
463	-0.00136585	-1.34532e-13	1.96032e-16	6.59896	1.5708	1.49827	9.07661e-16	8.16253e-17
464	-0.000735516	-3.10474e-14	1.91725e-16	6.61395	1.5708	1.49826	5.97187e-16	6.42597e-17
465	-0.000368498	-7.37755e-14	1.98127e-16	6.62895	1.5708	1.49826	-1.40568e-16	-1.5783e-17
466	-0.000141757	9.23209e-14	1.93631e-16	6.64395	1.5708	1.49826	7.82641e-16	3.15004e-17
467	-7.17503e-06	-1.87607e-13	2.09561e-16	6.65895	1.5708	1.49826	-1.09343e-15	-2.81709e-17
468	6.19668e-05	-7.76292e-14	2.31589e-16	6.67395	1.5708	1.49826	-1.86972e-15	5.41846e-18
469	8.64956e-05	1.30098e-13	2.45602e-16	6.68895	1.5708	1.49826	-5.68739e-16	1.44355e-17
470	8.40423e-05	-1.59408e-14	2.57879e-16	6.70395	1.5708	1.49826	-7.28147e-16	9.63665e-17
471	6.85165e-05	1.58317e-13	2.57656e-16	6.71895	1.5708	1.49826	8.55019e-16	8.38739e-17
472	4.95914e-05	-1.00438e-13	2.6248e-16	6.73395	1.5708	1.49826	-1.49363e-16	2.06565e-17
473	3.29263e-05	3.28182e-13	2.39481e-16	6.74895	1.5708	1.49826	3.13246e-15	2.28663e-17
474	2.09724e-05	-1.56402e-13	2.23797e-16	6.76395	1.5708	1.49826	1.56844e-15	-1.7776e-17
475	1.40125e-05	-3.10102e-14	2.16209e-16	6.77895	1.5708	1.49826	1.25834e-15	-8.84576e-17
476	1.11407e-05	-1.57953e-13	2.26082e-16	6.79395	1.5708	1.49826	-3.21191e-16	-1.01539e-16
477	1.10203e-05	1.7569e-13	2.20051e-16	6.80894	1.5708	1.49826	1.43571e-15	-3.53702e-17
478	1.23696e-05	-1.74087e-13	2.24768e-16	6.82394	1.5708	1.49826	-3.05158e-16	6.99233e-17
479	1.4206e-05	2.82476e-16	2.36118e-16	6.83894	1.5708	1.49826	-3.02333e-16	-4.601e-17
480	1.59101e-05	-2.30421e-14	2.43111e-16	6.85394	1.5708	1.49826	-5.32754e-16	2.7083e-17
481	1.71845e-05	7.05591e-14	2.44713e-16	6.86894	1.5708	1.49826	1.72836e-16	-7.00913e-17
482	1.79632e-05	1.06536e-13	2.40657e-16	6.88394	1.5708	1.49826	1.2382e-15	-5.27027e-17
483	1.83161e-05	-3.32588e-14	2.33266e-16	6.89894	1.5708	1.49826	9.05613e-16	3.64546e-17
484	1.83698e-05	1.07932e-13	2.18413e-16	6.91394	1.5708	1.49826	1.98493e-15	-5.78039e-17
485	1.82538e-05	-1.90035e-13	2.24228e-16	6.92894	1.5708	1.49826	8.45863e-17	-2.84094e-17
486	1.80725e-05	-2.42594e-16	2.25071e-16	6.94394	1.5708	1.49826	8.21603e-17	2.96931e-17
487	1.78944e-05	3.9374e-14	2.21978e-16	6.95894	1.5708	1.49826	4.759e-16	-6.26245e-17
488	1.7755e-05	1.49362e-13	2.08943e-16	6.97394	1.5708	1.49826	1.96952e-15	-8.9032e-17
489	1.76651e-05	-4.14248e-14	2.01717e-16	6.98894	1.5708	1.49826	1.55528e-15	-2.63597e-17
490	1.76199e-05	-1.27428e-13	2.07233e-16	7.00393	1.5708	1.49826	2.80993e-16	-8.13756e-17
491	1.76074e-05	-1.80545e-13	2.24143e-16	7.01893	1.5708	1.49826	-1.52446e-15	-3.71082e-17
492	1.76146e-05	1.98147e-13	2.26234e-16	7.03393	1.5708	1.49826	4.5701e-16	-1.04519e-16
493	1.76304e-05	-1.09768e-13	2.39302e-16	7.04893	1.5708	1.49826	-6.40674e-16	-2.48305e-17
494	1.76472e-05	-8.86157e-14	2.56235e-16	7.06393	1.5708	1.49826	-1.52683e-15	-2.5042e-17
495	1.76608e-05	1.77827e-13	2.60382e-16	7.07893	1.5708	1.49826	2.51436e-16	-8.73523e-17
496	1.76696e-05	6.25558e-14	2.51612e-16	7.09393	1.5708	1.49826	8.76994e-16	-9.11261e-18
497	1.76739e-05	-5.61973e-14	2.55123e-16	7.10893	1.5708	1.49826	3.15021e-16	-1.34051e-16
498	1.76747e-05	2.4033e-13	2.37931e-16	7.12393	1.5708	1.49826	2.71832e-15	1.34147e-18
499	1.76732e-05	-1.69645e-13	2.26047e-16	7.13893	1.5708	1.49826	1.02187e-15	2.18997e-14
500	1.76707e-05	-8.69055e-14	2.22854e-16	7.15393	1.5708	1.49826	1.52819e-16	1.90557e-15
501	1.7668e-05	-4.22003e-14	2.2388e-16	7.16893	1.5708	1.49826	-2.69184e-16	7.96296e-16
502	1.76655e-05	-4.98674e-14	2.31559e-16	7.18393	1.5708	1.49826	-7.67858e-16	3.32334e-16
503	1.76635e-05	3.7848e-14	2.37118e-16	7.19893	1.5708	1.49826	-3.89378e-16	2.49356e-16
504	1.76619e-05	2.19505e-13	2.22392e-16	7.21392	1.5708	1.49826	1.80567e-15	1.12936e-16
505	1.76608e-05	-7.37762e-14	2.06717e-16	7.22892	1.5708	1.49826	1.06791e-15	1.26654e-16
506	1.76598e-05	2.34094e-13	1.79289e-16	7.24392	1.5708	1.49826	3.40886e-15	-2.17931e-14
507	1.7659e-05	2.80005e-14	1.50727e-16	7.25892	1.5708	1.49826	3.68886e-15	-1.83556e-15
508	1.76583e-05	-1.73479e-13	1.39512e-16	7.27392	1.5708	1.49827	1.95407e-15	-7.92141e-16
509	1.76575e-05	-1.54799e-13	1.37117e-16	7.28892	1.5708	1.49827	4.06083e-16	-2.86416e-16
510	1.76567e-05	5.54393e-14	1.30843e-16	7.30392	1.5708	1.49827	9.60475e-16	-2.5995e-16
511	1.76558e-05	-9.51754e-14	1.34086e-16	7.31892	1.5708	1.49827	8.72094e-18	-7.79716e-17
512	1.76549e-05	5.05217e-14	1.35607e-16	7.33392	1.5708	1.49827	5.13938e-16	-1.12532e-16
513	1.76539e-05	4.48328e-14	1.32646e-16	7.34892	1.5708	1.49827	9.62266e-16	-6.25666e-17
514	1.7653e-05	-3.03091e-14	1.32715e-16	7.36392	1.5708	1.49827	6.59175e-16	-7.06828e-17
515	1.7652e-05	-2.64823e-14	1.28772e-16	7.37892	1.5708	1.49827	3.94352e-16	-7.17046e-17
516	1.76511e-05	4.55269e-14	1.25271e-16	7.39392	1.5708	1.49827	8.49621e-16	-1.6254e-16
517	1.76501e-05	7.23568e-14	1.14535e-16	7.40891	1.5708	1.49827	1.57319e-15	1.18333e-16
518	1.76492e-05	-2.75651e-14	1.06555e-16	7.42391	1.5708	1.49827	1.29754e-15	1.14195e-16
519	1.76482e-05	-8.20695e-14	1.10113e-16	7.43891	1.5708	1.49827	4.76843e-16	1.1539e-16
520	1.76473e-05	-1.64591e-13	1.28465e-16	7.45391	1.5708	1.49827	-1.16907e-15	1.32457e-16
521	1.76464e-05	-1.22517e-13	1.59068e-16	7.46891	1.5708	1.49827	-2.39424e-15	-8.04084e-17
522	1.76454e-05	1.55902e-15	1.91181e-16	7.48391	1.5708	1.49827	-2.37865e-15	-1.05949e-16
523	1.76445e-05	2.33509e-13	1.99943e-16	7.49891	1.5708	1.49827	-4.35584e-17	-6.42881e-17
524	1.76436e-05	6.92287e-14	2.01782e-16	7.51391	1.5708	1.49827	6.48729e-16	-7.74343e-17
525	1.76426e-05	-5.48871e-14	2.09109e-16	7.52891	1.5708	1.49827	9.98585e-17	-7.35732e-17
526	1.76417e-05	4.21803e-14	2.07223e-16	7.54391	1.5708	1.49827	5.21662e-16	-7.72462e-17
527	1.76407e-05	-8.73303e-14	2.17401e-16	7.55891	1.5708	1.49827	-3.51641e-16	-1.64813e-16
528	1.76398e-05	-9.52076e-14	2.32103e-16	7.57391	1.5708	1.49827	-1.30372e-15	9.67972e-17
529	1.76389e-05	2.78606e-13	2.23941e-16	7.58891	1.5708	1.49827	1.48234e-15	4.24695e-17
530	1.76379e-05	-7.70578e-14	2.18488e-16	7.6039	1.5708	1.49827	7.11761e-16	7.67069e-17
531	1.7637e-05	-3.28427e-14	2.21316e-16	7.6189	1.5708	1.49827	3.83334e-16	2.51834e-17
532	1.7636e-05	-1.57843e-13	2.33267e-16	7.6339	1.5708	1.49827	-1.19509e-15	6.05333e-17
533	1.76351e-05	9.76256e-14	2.38786e-16	7.6489	1.5708	1.49827	-2.18838e-16	-2.70517e-17
534	1.76342e-05	7.76769e-14	2.41533e-16	7.6639	1.5708	1.49827	5.57932e-16	2.58174e-18
535	1.76332e-05	-1.64422e-13	2.54061e-16	7.6789	1.5708	1.49827	-1.08629e-15	1.29034e-16
536	1.76323e-05	2.41515e-13	2.45768e-16	7.6939	1.5708	1.49827	1.32886e-15	3.41488e-17
537	1.76314e-05	7.78801e-14	2.33018e-16	7.7089	1.5708	1.49827	2.10766e-15	8.70013e-17
538	1.76304e-05	-1.26664e-13	2.26273e-16	7.7239	1.5708	1.49827	8.41021e-16	1.32427e-16
539	1.76295e-05	-2.6748e-14	2.25533e-16	7.7389	1.5708	1.49827	5.73541e-16	2.9578e-17
540	1.76285e-05	7.1531e-14	2.20971e-16	7.7539	1.5708	1.49827	1.28885e-15	7.91098e-17
541	1.76276e-05	-1.59688e-13	2.25716e-16	7.7689	1.5708	1.49827	-3.08034e-16	1.43477e-16
542	1.76267e-05	2.63941e-14	2.29488e-16	7.7839	1.5708	1.49827	-4.40924e-17	-1.90451e-16
543	1.76257e-05	1.87583e-13	2.17831e-16	7.79889	1.5708	1.49827	1.83174e-15	4.8296e-17
544	1.76248e-05	-1.45791e-13	2.24085e-16	7.81389	1.5708	1.49827	3.7383e-16	-1.59078e-17
545	1.76238e-05	-1.55974e-13	2.34279e-16	7.82889	1.5708	1.49827	-1.18591e-15	2.18845e-14
546	1.76229e-05	-4.31626e-14	2.50454e-16	7.84389	1.5708	1.49827	-1.61754e-15	1.86171e-15
547	1.7622e-05	-1.41047e-14	2.69705e-16	7.85889	1.5708	1.49827	-1.75858e-15	8.31756e-16
548	1.7621e-05	2.19055e-14	2.88431e-16	7.87389	1.5708	1.49827	-1.53953e-15	4.25247e-16
549	1.76201e-05	-3.49964e-14	3.0233e-16	7.88889	1.5708	1.49827	-1.88949e-15	5.58242e-17
550	1.76192e-05	1.52112e-13	3.1434e-16	7.90389	1.5708	1.49827	-3.68373e-16	-2.18476e-14
551	1.76182e-05	-3.9353e-14	3.30285e-16	7.91889	1.5708	1.49827	-7.61903e-16	-1.81339e-15
552	1.76173e-05	2.63719e-13	3.21524e-16	7.93389	1.5708	1.49827	1.87529e-15	-7.2328e-16
553	1.76163e-05	-3.55776e-14	3.07994e-16	7.94889	1.5708	1.49827	1.51951e-15	2.15707e-14
554	1.76154e-05	4.75704e-14	2.91372e-16	7.96389	1.5708	1.49827	1.99522e-15	1.74234e-15
555	1.76145e-05	-1.02343e-13	2.84985e-16	7.97889	1.5708	1.49827	9.71787e-16	9.51841e-16
556	1.76135e-05	5.64353e-14	2.74619e-16	7.99389	1.5708	1.49827	1.53614e-15	2.5483e-16
557	1.76126e-05	-1.32516e-14	2.65579e-16	8.00888	1.5708	1.49827	1.40362e-15	7.88781e-17
558	1.76116e-05	-5.04935e-14	2.63253e-16	8.02388	1.5708	1.49827	8.9869e-16	1.07408e-16
559	1.76107e-05	-1.20016e-13	2.71263e-16	8.03888	1.5708	1.49827	-3.01471e-16	1.1784e-16
560	1.76098e-05	6.92671e-14	2.74012e-16	8.05388	1.5708	1.49827	3.912e-16	9.27439e-17
561	1.76088e-05	-5.57939e-14	2.80676e-16	8.06888	1.5708	1.49827	-1.66738e-16	1.10999e-16
562	1.76079e-05	2.09617e-13	2.63046e-16	8.08388	1.5708	1.49827	1.92943e-15	1.06322e-16
563	1.76069e-05	3.46159e-15	2.40075e-16	8.09888	1.5708	1.49827	1.96405e-15	5.04339e-17
564	1.7606e-05	1.65175e-13	2.03917e-16	8.11388	1.5708	1.49827	3.6158e-15	2.03305e-17
565	1.76051e-05	1.60867e-13	1.56669e-16	8.12888	1.5708	1.49828	5.22447e-15	9.65294e-18
566	1.76041e-05	-1.5789e-13	1.20213e-16	8.14388	1.5708	1.49828	3.64557e-15	1.49496e-16
567	1.76032e-05	-4.8803e-15	8.75756e-17	8.15888	1.5708	1.49828	3.59677e-15	-1.44278e-16
568	1.76023e-05	-1.47252e-13	6.30025e-17	8.17388	1.5708	1.49828	2.12425e-15	-8.56445e-17
569	1.76013e-05	1.19911e-13	2.97689e-17	8.18888	1.5708	1.49828	3.32336e-15	-1.75045e-16
570	1.76004e-05	-8.55144e-15	7.2098e-19	8.20387	1.5708	1.49828	3.23785e-15	7.62971e-17
571	1.75994e-05	-1.94534e-13	-1.55345e-17	8.21887	1.5708	1.49828	1.2925e-15	1.12825e-16
572	1.75985e-05	-1.5937e-13	-1.25226e-17	8.23387	1.5708	1.49828	-3.01195e-16	-6.1355e-18
573	1.75976e-05	2.77776e-14	-1.06231e-17	8.24887	1.5708	1.49828	-2.34196e-17	1.93109e-17
574	1.75966e-05	6.20807e-14	-1.16013e-17	8.26387	1.5708	1.49828	5.97388e-16	4.29097e-17
575	1.75957e-05	-6.04446e-14	-1.48612e-17	8.27887	1.5708	1.49828	-7.05819e-18	1.21425e-16
576	1.75947e-05	2.71002e-14	-1.75006e-17	8.29387	1.5708	1.49828	2.63944e-16	2.6596e-17
577	1.75938e-05	3.22019e-14	-2.00297e-17	8.30887	1.5708	1.49828	5.85963e-16	4.17893e-17
578	1.75929e-05	1.89792e-13	-3.98728e-17	8.32387	1.5708	1.49828	2.48388e-15	1.4885e-16
579	1.75919e-05	-2.06452e-14	-5.59862e-17	8.33887	1.5708	1.49828	2.27743e-15	1.29274e-16
580	1.7591e-05	-2.55023e-13	-5.49235e-17	8.35387	1.5708	1.49828	-2.72795e-16	-4.35369e-17
581	1.75901e-05	-5.25794e-15	-4.6674e-17	8.36887	1.5708	1.49828	-3.25375e-16	-1.8979e-16
582	1.75891e-05	-2.08389e-14	-3.46753e-17	8.38387	1.5708	1.49828	-5.33764e-16	9.54207e-17
583	1.75882e-05	3.48966e-14	-2.61663e-17	8.39886	1.5708	1.49828	-1.84798e-16	1.58978e-16
584	1.75872e-05	-6.44314e-14	-1.95405e-17	8.41386	1.5708	1.49828	-8.29112e-16	-4.06727e-17
585	1.75863e-05	6.24884e-14	-1.58329e-17	8.42886	1.5708	1.49828	-2.04228e-16	-1.77596e-16
586	1.75854e-05	-7.52433e-14	-2.93582e-18	8.44386	1.5708	1.49828	-9.56661e-16	7.49707e-17
587	1.75844e-05	1.45998e-13	-4.63848e-18	8.45886	1.5708	1.49828	5.03316e-16	1.27142e-16
588	1.75835e-05	8.6865e-14	-1.50276e-17	8.47386	1.5708	1.49828	1.37197e-15	1.29056e-16
589	1.75825e-05	-5.87834e-14	-2.2869e-17	8.48886	1.5708	1.49828	7.84132e-16	1.18441e-16
590	1.75816e-05	5.59007e-14	-3.29699e-17	8.50386	1.5708	1.49828	1.34314e-15	8.01153e-17
591	1.75807e-05	-1.27492e-13	-3.53173e-17	8.51886	1.5708	1.49828	6.82222e-17	7.47625e-17
592	1.75797e-05	-1.59425e-13	-1.83918e-17	8.53386	1.5708	1.49828	-1.52603e-15	2.5442e-17
593	1.75788e-05	1.948e-13	-1.76158e-17	8.54886	1.5708	1.49828	4.21975e-16	1.09901e-16
594	1.75779e-05	-6.4148e-15	-2.11941e-17	8.56386	1.5708	1.49828	3.57827e-16	1.91665e-16
595	1.75769e-05	1.38409e-14	-2.28259e-17	8.57886	1.5708	1.49828	4.96236e-16	-8.66614e-17
596	1.7576e-05	-2.00119e-13	-1.11069e-17	8.59385	1.5708	1.49828	-1.50495e-15	-8.80717e-17
597	1.7575e-05	1.95094e-14	6.98739e-18	8.60885	1.5708	1.49828	-1.30986e-15	-1.88378e-16
598	1.75741e-05	1.22991e-13	6.12162e-18	8.62385	1.5708	1.49828	-7.9948e-17	1.60742e-16
599	1.75732e-05	6.76046e-14	1.60647e-19	8.63885	1.5708	1.49828	5.96098e-16	-1.33663e-16
600	1.75722e-05	-1.12312e-14	-3.01196e-18	8.65385	1.5708	1.49828	4.83786e-16	1.35254e-16
601	1.75713e-05	-9.92951e-14	7.07545e-18	8.66885	1.5708	1.49828	-5.09166e-16	1.84902e-16
602	1.75703e-05	-1.95729e-13	2.84095e-17	8.68385	1.5708	1.49828	-2.46646e-15	-2.90323e-17
603	1.75694e-05	7.34611e-14	4.90585e-17	8.69885	1.5708	1.49828	-1.73185e-15	-1.06111e-16
604	1.75685e-05	9.30081e-14	6.20719e-17	8.71385	1.5708	1.49828	-8.01765e-16	-5.99595e-17
605	1.75675e-05	3.532e-14	7.15533e-17	8.72885	1.5708	1.49828	-4.48565e-16	-7.59863e-18
606	1.75666e-05	-1.13473e-13	8.40558e-17	8.74385	1.5708	1.49828	-1.5833e-15	-3.14162e-17
607	1.75656e-05	1.51776e-13	8.80416e-17	8.75885	1.5708	1.49828	-6.55355e-17	-1.94247e-16
608	1.75647e-05	5.02267e-14	8.70048e-17	8.77385	1.5708	1.49828	4.36731e-16	8.88252e-17
609	1.75638e-05	-2.13129e-13	1.08946e-16	8.78885	1.5708	1.49828	-1.69456e-15	6.44244e-17
610	1.75628e-05	-2.79565e-13	1.58844e-16	8.80384	1.5708	1.49828	-4.4902e-15	7.59936e-17
611	1.75619e-05	-1.93875e-14	2.1068e-16	8.81884	1.5708	1.49828	-4.68408e-15	8.1919e-17
612	1.7561e-05	2.51326e-13	2.32389e-16	8.83384	1.5708	1.49828	-2.17082e-15	1.18998e-16
613	1.756e-05	1.60173e-13	2.4141e-16	8.84884	1.5708	1.49828	-5.69084e-16	3.27884e-17
614	1.75591e-05	-5.31149e-14	2.50747e-16	8.86384	1.5708	1.49828	-1.10023e-15	3.51436e-17
615	1.75581e-05	1.11722e-13	2.52242e-16	8.87884	1.5708	1.49828	1.6986e-17	9.28135e-18
616	1.75572e-05	9.30151e-14	2.47767e-16	8.89384	1.5708	1.49828	9.47137e-16	7.59803e-17
617	1.75563e-05	2.75418e-14	2.33876e-16	8.90884	1.5708	1.49828	1.22255e-15	1.77784e-16
618	1.75553e-05	8.00989e-14	2.15306e-16	8.92384	1.5708	1.49828	2.02354e-15	-1.66169e-16
619	1.75544e-05	-4.60869e-14	2.04675e-16	8.93884	1.5708	1.49828	1.56268e-15	8.19244e-17
620	1.75534e-05	-1.37221e-13	2.01105e-16	8.95384	1.5708	1.49828	1.90466e-16	1.22171e-16
621	1.75525e-05	-2.28532e-14	2.03151e-16	8.96884	1.5708	1.49828	-3.80666e-17	1.41559e-17
622	1.75516e-05	-1.21324e-13	2.18994e-16	8.98384	1.5708	1.49829	-1.25131e-15	1.51224e-17
623	1.75506e-05	2.11983e-13	2.15305e-16	8.99883	1.5708	1.49829	8.68526e-16	8.17856e-17
624	1.75497e-05	3.24529e-14	2.00044e-16	9.01383	1.5708	1.49829	1.19306e-15	1.23195e-16
625	1.75488e-05	3.41693e-14	1.88027e-16	9.02883	1.5708	1.49829	1.53475e-15	2.02857e-17
626	1.75478e-05	-6.51097e-14	1.82521e-16	9.04383	1.5708	1.49829	8.83652e-16	8.52727e-17
627	1.75469e-05	-1.82291e-13	1.95244e-16	9.05883	1.5708	1.49829	-9.39259e-16	1.01964e-16
628	1.75459e-05	-1.74004e-13	2.18706e-16	9.07383	1.5708	1.49829	-2.6793e-15	1.02466e-16
629	1.7545e-05	1.17594e-13	2.35405e-16	9.08883	1.5708	1.49829	-1.50335e-15	1.35577e-17
630	1.75441e-05	2.77025e-14	2.49334e-16	9.10383	1.5708	1.49829	-1.22633e-15	6.28538e-17
631	1.75431e-05	8.12179e-14	2.55141e-16	9.11883	1.5708	1.49829	-4.1415e-16	1.05357e-16
632	1.75422e-05	3.84675e-13	2.27475e-16	9.13383	1.5708	1.49829	3.4326e-15	1.43978e-16
633	1.75412e-05	-2.30638e-13	2.16213e-16	9.14883	1.5708	1.49829	1.12622e-15	1.82476e-16
634	1.75403e-05	1.40865e-13	1.9586e-16	9.16383	1.5708	1.49829	2.53487e-15	-1.01134e-16
635	1.75394e-05	-7.78675e-14	1.76633e-16	9.17883	1.5708	1.49829	1.75619e-15	-5.15659e-17
636	1.75384e-05	-2.0825e-13	1.81562e-16	9.19382	1.5708	1.49829	-3.26305e-16	-1.40213e-16
637	1.75375e-05	6.83158e-14	1.82989e-16	9.20882	1.5708	1.49829	3.56853e-16	-9.76333e-17
638	1.75365e-05	-1.11823e-13	1.88937e-16	9.22382	1.5708	1.49829	-7.6138e-16	-5.69733e-17
639	1.75356e-05	5.96911e-14	1.92247e-16	9.23882	1.5708	1.49829	-1.64469e-16	-1.15216e-16
640	1.75347e-05	-2.57623e-14	1.99799e-16	9.25382	1.5708	1.49829	-4.22092e-16	-1.01501e-16
641	1.75337e-05	-9.11755e-14	2.18133e-16	9.26882	1.5708	1.49829	-1.33385e-15	-4.40237e-17
642	1.75328e-05	8.74322e-14	2.19398e-16	9.28382	1.5708	1.49829	-4.59525e-16	3.65633e-17
643	1.75319e-05	1.08063e-13	2.18182e-16	9.29882	1.5708	1.49829	6.21103e-16	-5.39771e-17
644	1.75309e-05	-1.77259e-13	2.24701e-16	9.31382	1.5708	1.49829	-1.15149e-15	2.40411e-17
645	1.753e-05	2.44486e-13	2.13433e-16	9.32882	1.5708	1.49829	1.29337e-15	-6.14499e-17
646	1.7529e-05	-1.09872e-13	2.13152e-16	9.34382	1.5708	1.49829	1.94646e-16	-3.74875e-17
647	1.75281e-05	-2.61522e-14	2.17151e-16	9.35882	1.5708	1.49829	-6.6877e-17	2.85571e-18
648	1.75272e-05	-1.2264e-13	2.31749e-16	9.37382	1.5708	1.49829	-1.29328e-15	1.40333e-17
649	1.75262e-05	1.33135e-13	2.28038e-16	9.38882	1.5708	1.49829	3.80744e-17	8.71317e-18
650	1.75253e-05	1.0673e-13	2.18649e-16	9.40381	1.5708	1.49829	1.10538e-15	-6.89725e-17
651	1.75243e-05	-1.52787e-13	2.19544e-16	9.41881	1.5708	1.49829	-4.22489e-16	-2.49655e-17
652	1.75234e-05	1.19065e-13	2.11862e-16	9.43381	1.5708	1.49829	7.68157e-16	-6.41705e-17
653	1.75225e-05	-4.5589e-14	2.1207e-16	9.44881	1.5708	1.49829	3.12267e-16	-9.54114e-18
654	1.75215e-05	-9.73944e-14	2.23683e-16	9.46381	1.5708	1.49829	-6.61677e-16	6.38938e-17
655	1.75206e-05	4.05396e-14	2.26245e-16	9.47881	1.5708	1.49829	-2.56281e-16	9.74615e-17
656	1.75197e-05	6.08864e-14	2.2605e-16	9.49381	1.5708	1.49829	3.52584e-16	2.54403e-17
657	1.75187e-05	-2.75685e-14	2.30277e-16	9.50881	1.5708	1.49829	7.68984e-17	2.67436e-17
658	1.75178e-05	3.40685e-15	2.25837e-16	9.52381	1.5708	1.49829	1.10967e-16	6.0536e-17
659	1.75168e-05	1.97782e-13	2.08279e-16	9.53881	1.5708	1.49829	2.08879e-15	-2.23168e-17
660	1.75159e-05	-1.94298e-13	2.11817e-16	9.55381	1.5708	1.49829	1.4581e-16	2.73284e-17
661	1.7515e-05	-2.75282e-14	2.11446e-16	9.56881	1.5708	1.49829	-1.29472e-16	1.01453e-16
662	1.7514e-05	1.01763e-14	2.15054e-16	9.58381	1.5708	1.49829	-2.77086e-17	1.42783e-18
663	1.75131e-05	-5.1914e-14	2.23853e-16	9.5988	1.5708	1.49829	-5.46849e-16	9.09496e-17
664	1.75121e-05	-7.08052e-14	2.39732e-16	9.6138	1.5708	1.49829	-1.2549e-15	6.01586e-17
665	1.75112e-05	1.94131e-13	2.36199e-16	9.6288	1.5708	1.49829	6.86408e-16	9.91101e-17
666	1.75103e-05	-4.4136e-14	2.32083e-16	9.6438	1.5708	1.49829	2.45047e-16	9.06688e-17
667	1.75093e-05	-6.16806e-15	2.3358e-16	9.6588	1.5708	1.49829	1.83367e-16	-2.79449e-18
668	1.75084e-05	5.93549e-14	2.24146e-16	9.6738	1.5708	1.49829	7.76915e-16	6.92634e-17
669	1.75074e-05	-2.44896e-14	2.18825e-16	9.6888	1.5708	1.49829	5.3202e-16	8.16262e-18
670	1.75065e-05	2.00339e-14	2.14832e-16	9.7038	1.5708	1.49829	7.32359e-16	4.70147e-17
671	1.75056e-05	1.19053e-14	2.12979e-16	9.7188	1.5708	1.49829	8.51412e-16	1.2635e-16
672	1.75046e-05	-1.0544e-13	2.15009e-16	9.7338	1.5708	1.49829	-2.02991e-16	1.78298e-16
673	1.75037e-05	2.77616e-14	2.15928e-16	9.7488	1.5708	1.49829	7.46251e-17	-1.17058e-16
674	1.75028e-05	6.00824e-14	2.12504e-16	9.7638	1.5708	1.49829	6.75449e-16	-1.27875e-16
675	1.75018e-05	-1.41072e-13	2.24853e-16	9.7788	1.5708	1.49829	-7.3527e-16	-1.14559e-16
676	1.75009e-05	1.20486e-13	2.28483e-16	9.7938	1.5708	1.49829	4.69589e-16	-7.89597e-17
677	1.74999e-05	4.12638e-14	2.17995e-16	9.80879	1.5708	1.49829	8.82226e-16	-2.48824e-17
678	1.7499e-05	-4.23242e-14	2.16736e-16	9.82379	1.5708	1.49829	4.58985e-16	-2.02242e-16
679	1.74981e-05	1.2422e-13	2.03055e-16	9.83879	1.5708	1.4983	1.70118e-15	8.56982e-17
680	1.74971e-05	5.97781e-14	1.85061e-16	9.85379	1.5708	1.4983	2.29896e-15	1.07789e-16
681	1.74962e-05	-2.52427e-13	1.87314e-16	9.86879	1.5708	1.4983	-2.25307e-16	8.15084e-17
682	1.74952e-05	8.7579e-14	1.8414e-16	9.88379	1.5708	1.4983	6.50483e-16	2.09911e-17
683	1.74943e-05	-1.90335e-13	1.93338e-16	9.89879	1.5708	1.4983	-1.25287e-15	3.71659e-17
684	1.74934e-05	4.06398e-14	2.03468e-16	9.91379	1.5708	1.4983	-8.46471e-16	-1.55164e-17
685	1.74924e-05	2.55341e-14	2.14375e-16	9.92879	1.5708	1.4983	-5.9113e-16	3.09363e-17
686	1.74915e-05	5.20044e-14	2.1342e-16	9.94379	1.5708	1.4983	-7.10857e-17	1.2242e-16
687	1.74906e-05	4.62374e-14	2.09508e-16	9.95879	1.5708	1.4983	3.91288e-16	4.67165e-17
688	1.74896e-05	2.00078e-13	1.88917e-16	9.97379	1.5708	1.4983	2.39207e-15	5.84887e-17
689	1.74887e-05	-2.21365e-13	1.90464e-16	9.98879	1.5708	1.4983	1.7842e-16	6.50077e-17
690	1.74877e-05	-6.55012e-14	2.01891e-16	10.0038	1.5708	1.4983	-4.76592e-16	9.59573e-17
691	1.74868e-05	-7.10994e-14	2.20427e-16	10.0188	1.5708	1.4983	-1.18759e-15	1.34392e-16
692	1.74859e-05	1.47393e-13	2.17564e-16	10.0338	1.5708	1.4983	2.86341e-16	-4.97955e-17
693	1.74849e-05	1.45252e-13	2.05171e-16	10.0488	1.5708	1.4983	1.73886e-15	-1.50362e-16
694	1.7484e-05	-1.68331e-13	2.09611e-16	10.0638	1.5708	1.4983	5.55459e-17	9.8999e-17
695	1.7483e-05	-9.23691e-14	2.21623e-16	10.0788	1.5708	1.4983	-8.68145e-16	8.95214e-17
696	1.74821e-05	-7.28407e-14	2.35924e-16	10.0938	1.5708	1.4983	-1.59655e-15	6.16528e-17
697	1.74812e-05	8.73466e-14	2.46485e-16	10.1088	1.5708	1.4983	-7.23087e-16	-4.67194e-17
698	1.74802e-05	-8.48203e-14	2.58867e-16	10.1238	1.5708	1.4983	-1.57129e-15	-1.49345e-17
699	1.74793e-05	2.89805e-13	2.456e-16	10.1388	1.5708	1.4983	1.32676e-15	-5.8231e-17
700	1.74783e-05	5.48591e-14	2.28512e-16	10.1538	1.5708	1.4983	1.87535e-15	-3.67787e-17
701	1.74774e-05	-1.39437e-13	2.18706e-16	10.1688	1.5708	1.4983	4.80974e-16	-3.28372e-17
702	1.74765e-05	1.10705e-13	2.06157e-16	10.1838	1.5708	1.4983	1.58802e-15	-8.47442e-17
703	1.74755e-05	-1.41609e-13	1.99441e-16	10.1988	1.5708	1.4983	1.71932e-16	-7.78921e-18
704	1.74746e-05	-7.82266e-14	2.05545e-16	10.2138	1.5708	1.4983	-6.10334e-16	-1.23783e-16
705	1.74737e-05	6.19782e-14	2.08781e-16	10.2288	1.5708	1.4983	9.4476e-18	-6.60706e-17
706	1.74727e-05	5.2926e-14	2.06724e-16	10.2438	1.5708	1.4983	5.38707e-16	-1.73996e-17
707	1.74718e-05	-4.14696e-14	2.07149e-16	10.2588	1.5708	1.4983	1.24011e-16	-3.37958e-17
708	1.74708e-05	-6.00266e-14	2.15242e-16	10.2738	1.5708	1.4983	-4.76255e-16	-6.99511e-17
709	1.74699e-05	-6.66938e-14	2.25009e-16	10.2888	1.5708	1.4983	-1.14319e-15	-5.34399e-17
710	1.7469e-05	1.64355e-13	2.21671e-16	10.3038	1.5708	1.4983	5.00361e-16	-1.26064e-16
711	1.7468e-05	-8.41588e-14	2.20087e-16	10.3188	1.5708	1.4983	-3.41227e-16	1.33489e-16
712	1.74671e-05	1.65794e-14	2.21842e-16	10.3338	1.5708	1.4983	-1.75433e-16	6.80036e-17
713	1.74661e-05	4.99658e-14	2.2193e-16	10.3488	1.5708	1.4983	3.24225e-16	1.14348e-16
714	1.74652e-05	-1.62154e-13	2.29907e-16	10.3638	1.5708	1.4983	-1.29731e-15	1.57368e-16
715	1.74643e-05	-8.60491e-15	2.4041e-16	10.3788	1.5708	1.4983	-1.38336e-15	-2.05691e-16
716	1.74633e-05	1.6595e-13	2.37649e-16	10.3938	1.5708	1.4983	2.7614e-16	7.50539e-17
717	1.74624e-05	4.52557e-14	2.32027e-16	10.4088	1.5708	1.4983	7.28697e-16	6.05289e-17
718	1.74615e-05	-6.08956e-14	2.32495e-16	10.4238	1.5708	1.4983	1.19741e-16	9.14586e-17
719	1.74605e-05	-1.1463e-13	2.46091e-16	10.4388	1.5708	1.4983	-1.02656e-15	1.21336e-16
720	1.74596e-05	1.87337e-13	2.40954e-16	10.4538	1.5708	1.4983	8.46804e-16	-6.49384e-17
721	1.74586e-05	-1.00734e-14	2.36823e-16	10.4688	1.5708	1.4983	7.46071e-16	-7.64897e-17
722	1.74577e-05	-6.84309e-14	2.34541e-16	10.4838	1.5708	1.4983	6.17612e-17	-8.44792e-17
723	1.74568e-05	3.68369e-14	2.31904e-16	10.4988	1.5708	1.4983	4.30131e-16	-1.75207e-16
724	1.74558e-05	-9.3741e-14	2.31982e-16	10.5138	1.5708	1.4983	-5.07279e-16	1.11444e-16
725	1.74549e-05	1.04813e-14	2.36006e-16	10.5288	1.5708	1.4983	-4.02467e-16	1.77453e-17
726	1.74539e-05	1.82566e-13	2.25105e-16	10.5438	1.5708	1.4983	1.4232e-15	8.36277e-17
727	1.7453e-05	8.05056e-14	1.97826e-16	10.5588	1.5708	1.4983	2.22825e-15	1.94112e-16
728	1.74521e-05	-1.63596e-13	1.88573e-16	10.5738	1.5708	1.4983	5.92297e-16	-2.02562e-16
729	1.74511e-05	-1.70374e-13	1.99687e-16	10.5888	1.5708	1.4983	-1.11145e-15	4.80012e-17
730	1.74502e-05	1.92466e-13	1.91555e-16	10.6038	1.5708	1.4983	8.13214e-16	1.10111e-16
731	1.74492e-05	-1.79903e-13	2.01414e-16	10.6188	1.5708	1.4983	-9.85819e-16	1.34613e-16
732	1.74483e-05	7.38289e-14	2.03889e-16	10.6338	1.5708	1.4983	-2.47531e-16	-9.17866e-17
733	1.74474e-05	-6.10199e-15	2.0864e-16	10.6488	1.5708	1.4983	-3.08551e-16	-7.96766e-17
734	1.74464e-05	-8.61704e-14	2.15346e-16	10.6638	1.5708	1.4983	-1.17025e-15	-6.87098e-17
735	1.74455e-05	1.86746e-13	2.1004e-16	10.6788	1.5708	1.4983	6.97205e-16	-1.56849e-16
736	1.74446e-05	-2.54745e-14	2.08945e-16	10.6938	1.5708	1.49831	4.4246e-16	1.6265e-16
737	1.74436e-05	-8.67058e-14	2.11526e-16	10.7087	1.5708	1.49831	-4.24598e-16	-7.13367e-18
738	1.74427e-05	1.98122e-14	2.13791e-16	10.7237	1.5708	1.49831	-2.26476e-16	-7.65523e-17
739	1.74417e-05	6.88001e-15	2.17033e-16	10.7387	1.5708	1.49831	-1.57676e-16	-4.80231e-17
740	1.74408e-05	6.2056e-14	2.07408e-16	10.7537	1.5708	1.49831	4.62885e-16	-1.81341e-17
741	1.74399e-05	3.57884e-14	2.00866e-16	10.7687	1.5708	1.49831	8.20769e-16	-1.27623e-16
742	1.74389e-05	-1.10801e-13	2.05404e-16	10.7837	1.5708	1.49831	-2.87243e-16	-6.68348e-17
743	1.7438e-05	6.40179e-14	1.95213e-16	10.7987	1.5708	1.49831	3.52936e-16	-1.19096e-17
744	1.7437e-05	-9.62532e-14	2.01309e-16	10.8137	1.5708	1.49831	-6.09596e-16	-1.73121e-16
745	1.74361e-05	-4.91565e-14	2.12321e-16	10.8287	1.5708	1.49831	-1.10116e-15	1.32703e-16
746	1.74352e-05	8.50219e-14	2.09834e-16	10.8437	1.5708	1.49831	-2.50942e-16	-3.69706e-17
747	1.74342e-05	8.31374e-15	2.09847e-16	10.8587	1.5708	1.49831	-1.67805e-16	-9.54903e-17
748	1.74333e-05	1.54646e-15	2.13036e-16	10.8737	1.5708	1.49831	-1.5234e-16	-2.70754e-17
749	1.74324e-05	-9.53661e-14	2.191e-16	10.8887	1.5708	1.49831	-1.106e-15	5.59864e-17
750	1.74314e-05	1.53922e-13	2.13103e-16	10.9037	1.5708	1.49831	4.33218e-16	-3.97785e-17
751	1.74305e-05	-3.90362e-14	2.12674e-16	10.9187	1.5708	1.49831	4.28553e-17	-9.85634e-17
752	1.74295e-05	-2.80966e-14	2.16721e-16	10.9337	1.5708	1.49831	-2.38111e-16	-1.43273e-17
753	1.74286e-05	4.00144e-14	2.18431e-16	10.9487	1.5708	1.49831	1.62033e-16	5.01115e-17
754	1.74277e-05	1.29563e-13	2.00524e-16	10.9637	1.5708	1.49831	1.45766e-15	9.99335e-17
755	1.74267e-05	-1.66231e-13	2.0257e-16	10.9787	1.5708	1.49831	-2.04649e-16	-3.56689e-17
756	1.74258e-05	-3.19884e-14	2.09481e-16	10.9937	1.5708	1.49831	-5.24533e-16	-7.17663e-18
757	1.74248e-05	-1.35827e-13	2.23313e-16	11.0087	1.5708	1.49831	-1.88281e-15	4.76491e-17
758	1.74239e-05	3.12806e-13	2.1086e-16	11.0237	1.5708	1.49831	1.24526e-15	-1.69429e-17
759	1.7423e-05	-3.95873e-14	2.05697e-16	11.0387	1.5708	1.49831	8.49387e-16	8.01171e-18
760	1.7422e-05	-2.45956e-14	1.96332e-16	11.0537	1.5708	1.49831	6.03431e-16	1.03101e-16
761	1.74211e-05	2.3763e-14	1.87922e-16	11.0687	1.5708	1.49831	8.41062e-16	-4.87084e-18
762	1.74201e-05	-6.14671e-14	1.87323e-16	11.0837	1.5708	1.49831	2.26391e-16	9.09528e-18
763	1.74192e-05	-7.46329e-14	1.85861e-16	11.0987	1.5708	1.49831	-5.19938e-16	7.98212e-17
764	1.74183e-05	7.9926e-14	1.84733e-16	11.1137	1.5708	1.49831	2.79323e-16	-4.87052e-17
765	1.74173e-05	-8.8881e-14	1.92493e-16	11.1287	1.5708	1.49831	-6.09487e-16	6.02164e-17
766	1.74164e-05	-5.38625e-14	2.07305e-16	11.1437	1.5708	1.49831	-1.14811e-15	7.82052e-17
767	1.74155e-05	-2.60514e-14	2.23057e-16	11.1587	1.5708	1.49831	-1.40863e-15	1.07341e-16
768	1.74145e-05	1.27494e-13	2.21063e-16	11.1737	1.5708	1.49831	-1.33687e-16	9.01125e-17
769	1.74136e-05	1.00532e-13	2.14012e-16	11.1887	1.5708	1.49831	8.71634e-16	9.43736e-18
770	1.74126e-05	-1.22589e-13	2.12559e-16	11.2037	1.5708	1.49831	-3.54261e-16	6.4176e-17
771	1.74117e-05	-1.44049e-13	2.28841e-16	11.2187	1.5708	1.49831	-1.79475e-15	-1.79679e-17
772	1.74108e-05	1.9483e-13	2.27306e-16	11.2337	1.5708	1.49831	1.53547e-16	4.70643e-17
773	1.74098e-05	1.3571e-13	2.13864e-16	11.2487	1.5708	1.49831	1.51064e-15	6.42703e-17
774	1.74089e-05	-8.59005e-14	2.02352e-16	11.2637	1.5708	1.49831	6.51639e-16	1.16502e-16
775	1.74079e-05	5.60331e-14	1.91898e-16	11.2787	1.5708	1.49831	1.21197e-15	6.37262e-18
776	1.7407e-05	-1.62418e-13	1.97685e-16	11.2937	1.5708	1.49831	-4.12209e-16	7.38041e-17
777	1.74061e-05	6.71394e-14	1.96758e-16	11.3087	1.5708	1.49831	2.59186e-16	1.20326e-16
778	1.74051e-05	-1.07805e-13	2.06612e-16	11.3237	1.5708	1.49831	-8.18868e-16	1.03159e-16
779	1.74042e-05	1.10206e-13	2.02115e-16	11.3387	1.5708	1.49831	2.83189e-16	1.15034e-16
780	1.74033e-05	-5.51061e-14	2.06459e-16	11.3537	1.5708	1.49831	-2.67872e-16	4.09499e-17
781	1.74023e-05	6.05311e-14	1.98089e-16	11.3687	1.5708	1.49831	3.3744e-16	6.0056e-17
782	1.74014e-05	6.81591e-14	1.86234e-16	11.3837	1.5708	1.49831	1.01903e-15	-3.90464e-17
783	1.74004e-05	-6.40401e-14	1.82447e-16	11.3987	1.5708	1.49831	3.7863e-16	-2.33521e-17
784	1.73995e-05	-2.20861e-14	1.82535e-16	11.4137	1.5708	1.49831	1.57769e-16	3.00835e-19
785	1.73986e-05	-9.91614e-14	1.84212e-16	11.4287	1.5708	1.49831	-8.33844e-16	2.83181e-17
786	1.73976e-05	1.19568e-13	1.78929e-16	11.4437	1.5708	1.49831	3.61835e-16	-8.47314e-17
787	1.73967e-05	-1.00522e-13	1.85362e-16	11.4587	1.5708	1.49831	-6.43386e-16	-1.14319e-16
788	1.73957e-05	4.36694e-14	1.87429e-16	11.4737	1.5708	1.49831	-2.06691e-16	2.27403e-17
789	1.73948e-05	3.42949e-15	1.84158e-16	11.4887	1.5708	1.49831	-1.72396e-16	7.32171e-17
790	1.73939e-05	2.94689e-14	1.82935e-16	11.5037	1.5708	1.49831	1.22292e-16	8.66281e-18
791	1.73929e-05	-1.16995e-13	1.95076e-16	11.5187	1.5708	1.49831	-1.04766e-15	5.27888e-17
792	1.7392e-05	1.17493e-13	1.90473e-16	11.5337	1.5708	1.49831	1.27269e-16	1.47823e-16
793	1.7391e-05	6.794e-14	1.80741e-16	11.5487	1.5708	1.49831	8.0667e-16	-1.55158e-16
794	1.73901e-05	1.40667e-15	1.72534e-16	11.5637	1.5708	1.49832	8.20736e-16	1.14803e-16
795	1.73892e-05	-8.45624e-14	1.74448e-16	11.5787	1.5708	1.49832	-2.48877e-17	1.34004e-16
796	1.73882e-05	-8.25658e-14	1.86284e-16	11.5937	1.5708	1.49832	-8.50546e-16	-6.49331e-17
797	1.73873e-05	1.34609e-13	1.84659e-16	11.6087	1.5708	1.49832	4.95548e-16	-2.98732e-17
798	1.73864e-05	-9.44281e-14	1.92477e-16	11.6237	1.5708	1.49832	-4.48733e-16	-6.30672e-17
799	1.73854e-05	-4.43069e-15	1.95742e-16	11.6387	1.5708	1.49832	-4.9304e-16	-6.06855e-17
800	1.73845e-05	-2.30325e-14	2.04641e-16	11.6537	1.5708	1.49832	-7.23364e-16	-1.61623e-16
801	1.73835e-05	4.60165e-14	2.02277e-16	11.6687	1.5708	1.49832	-2.632e-16	1.10703e-16
802	1.73826e-05	-9.2806e-14	2.12525e-16	11.6837	1.5708	1.49832	-1.19126e-15	-1.26889e-17
803	1.73817e-05	4.76093e-14	2.21341e-16	11.6987	1.5708	1.49832	-7.15167e-16	4.71645e-17
804	1.73807e-05	4.0088e-14	2.2615e-16	11.7137	1.5708	1.49832	-3.14287e-16	1.40905e-16
805	1.73798e-05	-3.67651e-14	2.27973e-16	11.7287	1.5708	1.49832	-6.81938e-16	-7.49631e-17
806	1.73788e-05	7.10621e-14	2.27686e-16	11.7437	1.5708	1.49832	2.86831e-17	-1.71308e-16
807	1.73779e-05	2.04569e-14	2.25354e-16	11.7587	1.5708	1.49832	2.33253e-16	9.86835e-17
808	1.7377e-05	3.78215e-15	2.22643e-16	11.7737	1.5708	1.49832	2.71074e-16	9.87676e-17
809	1.7376e-05	-1.42437e-13	2.2918e-16	11.7887	1.5708	1.49832	-1.15329e-15	4.67221e-17
810	1.73751e-05	1.10102e-13	2.28038e-16	11.8037	1.5708	1.49832	-5.22775e-17	-2.78532e-17
811	1.73742e-05	9.73194e-15	2.29253e-16	11.8187	1.5708	1.49832	4.50419e-17	-2.57814e-17
812	1.73732e-05	6.49889e-14	2.25634e-16	11.8337	1.5708	1.49832	6.94931e-16	2.00567e-17
813	1.73723e-05	-1.4669e-15	2.15501e-16	11.8487	1.5708	1.49832	6.80262e-16	4.44685e-17
814	1.73713e-05	-5.69423e-14	2.12727e-16	11.8637	1.5708	1.49832	1.10839e-16	-8.60492e-17
815	1.73704e-05	-1.25477e-13	2.22501e-16	11.8787	1.5708	1.49832	-1.14393e-15	-1.41311e-16
816	1.73695e-05	8.94439e-14	2.24996e-16	11.8937	1.5708	1.49832	-2.4949e-16	-1.33982e-16
817	1.73685e-05	3.17707e-14	2.24314e-16	11.9087	1.5708	1.49832	6.82164e-17	1.23029e-16
818	1.73676e-05	-6.7921e-14	2.25428e-16	11.9237	1.5708	1.49832	-6.10993e-16	1.08597e-16
819	1.73666e-05	9.47172e-14	2.20401e-16	11.9387	1.5708	1.49832	3.36179e-16	3.09628e-17
820	1.73657e-05	8.90781e-14	2.09797e-16	11.9537	1.5708	1.49832	1.22696e-15	4.95175e-17
821	1.73648e-05	-1.2584e-13	2.05115e-16	11.9687	1.5708	1.49832	-3.1445e-17	8.55165e-17
822	1.73638e-05	6.77941e-15	2.01421e-16	11.9837	1.5708	1.49832	3.6349e-17	-2.92753e-17
823	1.73629e-05	2.22714e-14	1.98831e-16	11.9987	1.5708	1.49832	2.59063e-16	-3.31766e-17
824	1.73619e-05	3.87814e-14	1.94027e-16	12.0137	1.5708	1.49832	6.46877e-16	2.23597e-17
825	1.7361e-05	-1.25148e-13	2.01738e-16	12.0287	1.5708	1.49832	-6.046e-16	2.52019e-17
826	1.73601e-05	5.30465e-14	2.04145e-16	12.0437	1.5708	1.49832	-7.41353e-17	2.29585e-17
827	1.73591e-05	3.15632e-14	1.984e-16	12.0587	1.5708	1.49832	2.41497e-16	1.90077e-17
828	1.73582e-05	-8.58315e-15	1.96843e-16	12.0737	1.5708	1.49832	1.55666e-16	-6.25857e-17
829	1.73573e-05	5.00926e-14	1.93608e-16	12.0887	1.5708	1.49832	6.56591e-16	-3.81089e-17
830	1.73563e-05	-1.30773e-13	1.98454e-16	12.1037	1.5708	1.49832	-6.51134e-16	3.08632e-17
831	1.73554e-05	2.74343e-15	2.03025e-16	12.1187	1.5708	1.49832	-6.237e-16	-4.96931e-17
832	1.73544e-05	-7.76134e-14	2.18689e-16	12.1337	1.5708	1.49832	-1.39983e-15	-1.83263e-17
833	1.73535e-05	1.11305e-13	2.24887e-16	12.1487	1.5708	1.49832	-2.8678e-16	3.4973e-17
834	1.73526e-05	4.1986e-14	2.16895e-16	12.1637	1.5708	1.49832	1.3308e-16	6.12398e-17
835	1.73516e-05	8.65475e-15	2.13034e-16	12.1787	1.5708	1.49832	2.19627e-16	-1.12805e-16
836	1.73507e-05	-4.2119e-14	2.1838e-16	12.1937	1.5708	1.49832	-2.01563e-16	-7.69802e-17
837	1.73497e-05	-3.15479e-14	2.2022e-16	12.2087	1.5708	1.49832	-5.17042e-16	5.435e-17
838	1.73488e-05	9.31583e-14	2.16075e-16	12.2237	1.5708	1.49832	4.14541e-16	-4.47507e-17
839	1.73479e-05	-7.42682e-15	2.16002e-16	12.2387	1.5708	1.49832	3.40272e-16	1.1247e-17
840	1.73469e-05	-2.09067e-13	2.28511e-16	12.2537	1.5708	1.49832	-1.75039e-15	7.76304e-17
841	1.7346e-05	1.76181e-13	2.25066e-16	12.2687	1.5708	1.49832	1.14217e-17	-2.75536e-17
842	1.73451e-05	-5.66866e-14	2.28955e-16	12.2837	1.5708	1.49832	-5.55445e-16	-3.94141e-17
843	1.73441e-05	9.00017e-15	2.33609e-16	12.2987	1.5708	1.49832	-4.65443e-16	-1.19563e-17
844	1.73432e-05	4.37401e-14	2.3389e-16	12.3137	1.5708	1.49832	-2.8042e-17	4.43333e-17
845	1.73422e-05	-3.18207e-15	2.29493e-16	12.3287	1.5708	1.49832	-5.98627e-17	5.58706e-17
846	1.73413e-05	7.68995e-14	2.20736e-16	12.3437	1.5708	1.49832	7.09132e-16	-3.31809e-18
847	1.73404e-05	-1.8478e-17	2.15312e-16	12.3587	1.5708	1.49832	7.08947e-16	4.48719e-17
848	1.73394e-05	-4.27352e-14	2.075e-16	12.3737	1.5708	1.49832	2.81596e-16	9.58061e-17
849	1.73385e-05	8.34427e-14	1.9634e-16	12.3887	1.5708	1.49832	1.11602e-15	-1.4615e-17
850	1.73375e-05	-1.02233e-13	1.97068e-16	12.4037	1.5708	1.49832	9.36967e-17	9.36256e-18
851	1.73366e-05	-1.47778e-13	2.05913e-16	12.4187	1.5708	1.49833	-1.38408e-15	2.30761e-17
852	1.73357e-05	1.79505e-13	2.00138e-16	12.4337	1.5708	1.49833	4.10968e-16	-6.36394e-17
853	1.73347e-05	-6.48733e-14	2.00851e-16	12.4487	1.5708	1.49833	-2.37765e-16	-6.19714e-17
854	1.73338e-05	3.48016e-14	2.03079e-16	12.4637	1.5708	1.49833	1.10251e-16	-7.14994e-18
855	1.73328e-05	-5.40759e-15	1.99187e-16	12.4787	1.5708	1.49833	5.61755e-17	1.16662e-16
856	1.73319e-05	-1.33569e-13	2.10316e-16	12.4937	1.5708	1.49833	-1.27952e-15	-1.39712e-17
857	1.7331e-05	3.41389e-14	2.23028e-16	12.5087	1.5708	1.49833	-9.38126e-16	-2.53673e-17
858	1.733e-05	1.45575e-13	2.21183e-16	12.5237	1.5708	1.49833	5.17621e-16	9.54146e-17
859	1.73291e-05	-8.05643e-14	2.19067e-16	12.5387	1.5708	1.49833	-2.88022e-16	8.1777e-17
860	1.73282e-05	4.7147e-14	2.18898e-16	12.5537	1.5708	1.49833	1.83448e-16	-5.44653e-17
861	1.73272e-05	7.22341e-14	2.11505e-16	12.5687	1.5708	1.49833	9.05789e-16	4.10953e-17
862	1.73263e-05	-3.77686e-14	2.02894e-16	12.5837	1.5708	1.49833	5.28103e-16	8.27743e-17
863	1.73253e-05	6.55807e-14	1.91054e-16	12.5987	1.5708	1.49833	1.18391e-15	3.58873e-18
864	1.73244e-05	-9.12261e-14	1.91668e-16	12.6137	1.5708	1.49833	2.71649e-16	1.72904e-17
865	1.73235e-05	-8.70543e-14	1.92662e-16	12.6287	1.5708	1.49833	-5.98894e-16	9.29863e-17
866	1.73225e-05	3.91327e-15	1.94929e-16	12.6437	1.5708	1.49833	-5.59761e-16	-4.29108e-17
867	1.73216e-05	6.50096e-14	1.94025e-16	12.6587	1.5708	1.49833	9.03346e-17	-3.34274e-17
868	1.73206e-05	1.04198e-14	1.9208e-16	12.6737	1.5708	1.49833	1.94533e-16	1.99133e-17
869	1.73197e-05	-7.61761e-14	1.97752e-16	12.6887	1.5708	1.49833	-5.67228e-16	5.54898e-17
870	1.73188e-05	1.74219e-14	1.96687e-16	12.7036	1.5708	1.49833	-3.9301e-16	7.00521e-17
871	1.73178e-05	-6.58952e-14	2.05541e-16	12.7186	1.5708	1.49833	-1.05196e-15	-2.6278e-17
872	1.73169e-05	1.27806e-13	2.04945e-16	12.7336	1.5708	1.49833	2.26096e-16	2.48419e-18
873	1.73159e-05	-7.1741e-14	2.04863e-16	12.7486	1.5708	1.49833	-4.91313e-16	5.17278e-17
874	1.7315e-05	1.06283e-13	1.97482e-16	12.7636	1.5708	1.49833	5.71522e-16	-4.87351e-17
875	1.73141e-05	-1.19458e-13	2.02048e-16	12.7786	1.5708	1.49833	-6.23062e-16	-4.49874e-17
876	1.73131e-05	6.52782e-14	2.0175e-16	12.7936	1.5708	1.49833	2.97192e-17	-3.39411e-17
877	1.73122e-05	3.38455e-14	1.98069e-16	12.8086	1.5708	1.49833	3.68174e-16	-5.41864e-18
878	1.73113e-05	-9.12541e-14	1.98517e-16	12.8236	1.5708	1.49833	-5.44367e-16	-1.02618e-17
879	1.73103e-05	1.09712e-13	1.91324e-16	12.8386	1.5708	1.49833	5.52756e-16	-7.84204e-17
880	1.73094e-05	-9.64279e-14	1.95439e-16	12.8536	1.5708	1.49833	-4.11523e-16	-7.03244e-17
881	1.73084e-05	1.26965e-13	1.90188e-16	12.8686	1.5708	1.49833	8.58128e-16	-3.40561e-17
882	1.73075e-05	-1.24766e-13	1.90753e-16	12.8836	1.5708	1.49833	-3.89537e-16	5.82283e-18
883	1.73066e-05	2.63649e-14	1.90347e-16	12.8986	1.5708	1.49833	-1.25887e-16	-9.47584e-17
884	1.73056e-05	1.83048e-14	1.8811e-16	12.9136	1.5708	1.49833	5.71608e-17	-6.34873e-17
885	1.73047e-05	-1.69176e-13	2.04456e-16	12.9286	1.5708	1.49833	-1.6346e-15	-7.69138e-17
886	1.73037e-05	1.61983e-14	2.12521e-16	12.9436	1.5708	1.49833	-1.47261e-15	3.36485e-18
887	1.73028e-05	9.07178e-14	2.14845e-16	12.9586	1.5708	1.49833	-5.65437e-16	-5.24591e-17
888	1.73019e-05	1.52174e-14	2.20643e-16	12.9736	1.5708	1.49833	-4.13263e-16	3.07169e-18
889	1.73009e-05	-2.16011e-14	2.2194e-16	12.9886	1.5708	1.49833	-6.29274e-16	8.38297e-17
890	1.73e-05	1.70599e-13	2.12838e-16	13.0036	1.5708	1.49833	1.07671e-15	-1.60888e-17
891	1.72991e-05	2.33549e-15	2.03503e-16	13.0186	1.5708	1.49833	1.10007e-15	4.71469e-17
892	1.72981e-05	-1.05187e-13	2.04686e-16	13.0336	1.5708	1.49833	4.82012e-17	7.49571e-17
893	1.72972e-05	2.79183e-14	2.04742e-16	13.0486	1.5708	1.49833	3.27384e-16	7.0779e-17
894	1.72962e-05	-9.62779e-14	2.09431e-16	13.0636	1.5708	1.49833	-6.35395e-16	8.74471e-17
895	1.72953e-05	1.45007e-13	2.0295e-16	13.0786	1.5708	1.49833	8.14675e-16	2.86511e-17
896	1.72944e-05	-1.12732e-13	2.0108e-16	13.0936	1.5708	1.49833	-3.12642e-16	4.73327e-17
897	1.72934e-05	1.30619e-15	2.02411e-16	13.1086	1.5708	1.49833	-2.9958e-16	-5.26099e-17
898	1.72925e-05	-6.98707e-14	2.10728e-16	13.1236	1.5708	1.49833	-9.98287e-16	-4.56986e-17
899	1.72915e-05	1.27857e-13	2.07926e-16	13.1386	1.5708	1.49833	2.80287e-16	-4.41663e-17
900	1.72906e-05	-5.39607e-14	2.10519e-16	13.1536	1.5708	1.49833	-2.5932e-16	-6.17751e-17
901	1.72897e-05	1.06828e-13	2.02429e-16	13.1686	1.5708	1.49833	8.08964e-16	-5.55668e-17
902	1.72887e-05	-1.76278e-13	2.06972e-16	13.1836	1.5708	1.49833	-9.53815e-16	-6.58477e-17
903	1.72878e-05	1.97253e-14	2.12872e-16	13.1986	1.5708	1.49833	-7.56562e-16	-1.36158e-16
904	1.72868e-05	5.3698e-14	2.16733e-16	13.2136	1.5708	1.49833	-2.19581e-16	-7.82066e-17
905	1.72859e-05	-1.33553e-13	2.27288e-16	13.2286	1.5708	1.49833	-1.55511e-15	6.30627e-18
906	1.7285e-05	2.88338e-13	2.15671e-16	13.2436	1.5708	1.49833	1.32827e-15	-7.8347e-17
907	1.7284e-05	2.8313e-14	2.01222e-16	13.2586	1.5708	1.49833	1.6114e-15	-1.08521e-17
908	1.72831e-05	-4.73109e-14	1.91505e-16	13.2736	1.5708	1.49833	1.13829e-15	2.17418e-17
909	1.72822e-05	-2.35407e-13	1.98667e-16	13.2886	1.5708	1.49834	-1.21578e-15	-2.05528e-18
910	1.72812e-05	2.23674e-13	1.88457e-16	13.3036	1.5708	1.49834	1.02095e-15	-8.112e-17
911	1.72803e-05	-9.16113e-14	1.90739e-16	13.3186	1.5708	1.49834	1.0484e-16	-3.63431e-17
912	1.72793e-05	-2.16708e-13	2.08031e-16	13.3336	1.5708	1.49834	-2.06224e-15	5.06636e-17
913	1.72784e-05	2.10838e-13	2.05904e-16	13.3486	1.5708	1.49834	4.61421e-17	-4.03296e-17
914	1.72775e-05	-6.21596e-14	2.09994e-16	13.3636	1.5708	1.49834	-5.75453e-16	-4.89373e-17
915	1.72765e-05	1.39309e-14	2.1269e-16	13.3786	1.5708	1.49834	-4.36144e-16	-4.37516e-17
916	1.72756e-05	6.06271e-14	2.10989e-16	13.3936	1.5708	1.49834	1.70127e-16	-3.38598e-17
917	1.72746e-05	-1.99703e-14	2.14615e-16	13.4086	1.5708	1.49834	-2.95756e-17	3.97448e-18
918	1.72737e-05	-4.1051e-14	2.15685e-16	13.4236	1.5708	1.49834	-4.40086e-16	5.68504e-17
919	1.72728e-05	-4.91793e-14	2.23339e-16	13.4386	1.5708	1.49834	-9.31879e-16	-5.6682e-17
920	1.72718e-05	2.34341e-13	2.10889e-16	13.4536	1.5708	1.49834	1.41153e-15	2.12887e-17
921	1.72709e-05	-7.41388e-14	2.05853e-16	13.4686	1.5708	1.49834	6.7014e-16	6.05788e-17
922	1.727e-05	-7.36252e-14	1.99853e-16	13.4836	1.5708	1.49834	-6.61119e-17	4.49171e-17
923	1.7269e-05	4.83199e-14	1.95682e-16	13.4986	1.5708	1.49834	4.17087e-16	-7.61894e-17
924	1.72681e-05	-2.66357e-14	1.97505e-16	13.5136	1.5708	1.49834	1.5073e-16	2.40378e-17
925	1.72671e-05	-5.74789e-14	1.98415e-16	13.5286	1.5708	1.49834	-4.24059e-16	1.06254e-16
926	1.72662e-05	3.38593e-14	1.9927e-16	13.5436	1.5708	1.49834	-8.5466e-17	-3.71735e-18
927	1.72653e-05	3.71748e-14	1.99738e-16	13.5586	1.5708	1.49834	2.86282e-16	1.1541e-17
928	1.72643e-05	3.86293e-14	1.96342e-16	13.5736	1.5708	1.49834	6.72575e-16	6.08867e-17
929	1.72634e-05	-6.51581e-14	1.91137e-16	13.5886	1.5708	1.49834	2.09936e-17	7.64457e-17
930	1.72624e-05	2.28138e-15	1.90698e-16	13.6036	1.5708	1.49834	4.38074e-17	-5.50032e-17
931	1.72615e-05	-1.37916e-13	1.99056e-16	13.6186	1.5708	1.49834	-1.33535e-15	-1.91903e-17
932	1.72606e-05	2.23565e-13	1.88388e-16	13.6336	1.5708	1.49834	9.00299e-16	-7.69671e-17
933	1.72596e-05	-1.01466e-13	1.91197e-16	13.6486	1.5708	1.49834	-1.14358e-16	-3.82242e-17
934	1.72587e-05	4.05777e-14	1.91613e-16	13.6636	1.5708	1.49834	2.91419e-16	1.95199e-17
935	1.72577e-05	-1.50282e-13	1.98731e-16	13.6786	1.5708	1.49834	-1.21141e-15	2.64053e-17
936	1.72568e-05	2.07842e-13	1.86731e-16	13.6936	1.5708	1.49834	8.67011e-16	-8.45293e-17
937	1.72559e-05	-6.92157e-14	1.81652e-16	13.7086	1.5708	1.49834	1.74855e-16	-1.39826e-16
938	1.72549e-05	8.24336e-14	1.7166e-16	13.7236	1.5708	1.49834	9.9919e-16	1.03007e-16
939	1.7254e-05	-1.63167e-13	1.72989e-16	13.7386	1.5708	1.49834	-6.32477e-16	1.28226e-16
940	1.72531e-05	-4.81915e-14	1.82468e-16	13.7536	1.5708	1.49834	-1.11439e-15	8.7743e-17
941	1.72521e-05	1.94714e-14	1.9333e-16	13.7686	1.5708	1.49834	-9.19678e-16	1.38464e-16
942	1.72512e-05	1.53669e-14	2.0432e-16	13.7836	1.5708	1.49834	-7.66009e-16	-1.09912e-17
943	1.72502e-05	5.11203e-14	2.10199e-16	13.7986	1.5708	1.49834	-2.54807e-16	6.9038e-18
944	1.72493e-05	-2.68521e-14	2.10436e-16	13.8136	1.5708	1.49834	-5.23328e-16	3.60403e-17
945	1.72484e-05	2.66806e-14	2.13002e-16	13.8286	1.5708	1.49834	-2.56522e-16	-1.01685e-16
946	1.72474e-05	7.7218e-14	2.0951e-16	13.8436	1.5708	1.49834	5.15658e-16	-1.63869e-17
947	-2.33302	0.0726402	2.32231e-07	13.8584	1.57029	1.47501	0.000726402	-0.0507035
948	-3.57968	0.921086	-8.05891e-05	13.8728	1.56951	1.43921	0.00993727	-0.0777362
949	-3.19107	0.478476	-0.000195348	13.8869	1.5685	1.4073	0.014722	-0.101339
950	-3.17316	0.0499875	-0.000299159	13.9007	1.56729	1.37557	0.0152219	-0.120941
951	-3.06806	-0.110649	-0.000373794	13.9141	1.56586	1.34489	0.0141154	-0.142497
952	-3.04302	-0.134757	-0.000414358	13.9273	1.56418	1.31446	0.0127678	-0.167958
953	-3.09988	-0.096222	-0.00042201	13.9401	1.56221	1.28346	0.0118056	-0.19721
954	-3.19268	-0.0378687	-0.000399881	13.9527	1.55992	1.25154	0.0114269	-0.229248
955	-3.27993	0.016884	-0.000350911	13.9649	1.55729	1.21874	0.0115958	-0.262865
956	-3.33947	0.0571592	-0.000276878	13.9767	1.55432	1.18534	0.0121674	-0.297018
957	-3.36679	0.0798418	-0.000178162	13.9883	1.55101	1.15167	0.0129658	-0.33098
958	-3.3681	0.0861051	-5.38786e-05	13.9994	1.54737	1.11799	0.0138268	-0.36436
959	-3.35357	0.0790042	9.78115e-05	14.0103	1.5434	1.08446	0.0146169	-0.397033
960	-3.33269	0.0619647	0.000279377	14.0208	1.53911	1.05113	0.0152365	-0.429056
961	-3.31212	0.0379731	0.000493632	14.031	1.5345	1.01801	0.0156163	-0.460574
962	-3.29524	0.00925748	0.000743526	14.0409	1.52958	0.985057	0.0157088	-0.491759
963	-3.28271	-0.0227302	0.00103201	14.0504	1.52436	0.95223	0.0154815	-0.522757
964	-3.27348	-0.0571786	0.00136198	14.0596	1.51882	0.919495	0.0149097	-0.55367
965	-3.26565	-0.0937288	0.00173623	14.0685	1.51297	0.886838	0.0139725	-0.584551
966	-2.8129	-0.105923	0.00215717	14.0771	1.50688	0.858709	0.0129132	-0.609819
967	-1.91646	-0.0975444	0.00262804	14.0855	1.50063	0.839545	0.0119378	-0.624866
968	-1.17265	-0.100845	0.00315311	14.0937	1.49429	0.827818	0.0109293	-0.633132
969	-0.59915	-0.0962556	0.00373547	14.1019	1.48792	0.821827	0.00996678	-0.637052
970	-0.254069	-0.0868134	0.00437666	14.1101	1.48153	0.819286	0.00909864	-0.63907
971	-0.095681	-0.0548021	0.00507478	14.1183	1.47513	0.818329	0.00855062	-0.640005
972	-0.043779	-0.0296509	0.00582775	14.1264	1.46872	0.817891	0.00825411	-0.640398
973	-0.022972	-0.0160417	0.00663441	14.1346	1.46232	0.817662	0.00809369	-0.640565
974	-0.0136533	-0.00844148	0.00749402	14.1427	1.45591	0.817525	0.00800928	-0.640638
975	-0.00873775	-0.00419569	0.00840617	14.1509	1.4495	0.817438	0.00796732	-0.640671
976	-0.00578277	-0.0018995	0.0093706	14.159	1.44309	0.81738	0.00794833	-0.640689
977	-0.00394746	-0.000739978	0.0103872	14.1671	1.43668	0.81734	0.00794093	-0.6407
978	-0.00288395	-0.000220138	0.0114557	14.1752	1.43028	0.817312	0.00793873	-0.640708
979	-0.0023731	-3.43223e-05	0.0125763	14.1833	1.42387	0.817288	0.00793838	-0.640715
980	-0.00223107	-1.71616e-06	0.0137487	14.1914	1.41746	0.817266	0.00793837	-0.640721
981	-0.00230136	-2.35424e-05	0.014973	14.1995	1.41105	0.817243	0.00793813	-0.640728
982	-0.00246349	-5.25415e-05	0.0162491	14.2076	1.40464	0.817218	0.00793761	-0.640734
983	-0.00263701	-7.11736e-05	0.0175769	14.2157	1.39823	0.817192	0.00793689	-0.640741
984	-0.00277796	-7.69307e-05	0.0189565	14.2237	1.39182	0.817164	0.00793612	-0.640747
985	-0.00287021	-7.33217e-05	0.0203876	14.2318	1.38541	0.817135	0.00793539	-0.640754
986	-0.00291547	-6.50155e-05	0.0218704	14.2398	1.379	0.817106	0.00793474	-0.64076
987	-0.00292439	-5.57181e-05	0.0234046	14.2478	1.37259	0.817077	0.00793418	-0.640767
988	-0.00291007	-4.76236e-05	0.0249902	14.2559	1.36618	0.817048	0.00793371	-0.640774
989	-0.00288415	-4.16176e-05	0.0266272	14.2639	1.35977	0.817019	0.00793329	-0.640781
990	-0.00285508	-3.77253e-05	0.0283155	14.2719	1.35336	0.81699	0.00793291	-0.640787
991	-0.00282787	-3.55404e-05	0.030055	14.2799	1.34695	0.816962	0.00793256	-0.640794
992	-0.0028047	-3.45319e-05	0.0318456	14.2879	1.34054	0.816934	0.00793221	-0.640801
993	-0.00278584	-3.42202e-05	0.0336873	14.2958	1.33413	0.816906	0.00793187	-0.640808
994	-0.00277048	-3.42482e-05	0.03558	14.3038	1.32772	0.816878	0.00793153	-0.640814
995	-0.00275745	-3.43885e-05	0.0375235	14.3117	1.3213	0.816851	0.00793118	-0.640821
996	-0.00274566	-3.45195e-05	0.0395179	14.3196	1.31489	0.816823	0.00793084	-0.640828
997	-0.00273426	-3.45914e-05	0.041563	14.3276	1.30848	0.816796	0.00793049	-0.640835
998	-0.00272273	-3.4596e-05	0.0436587	14.3355	1.30207	0.816769	0.00793015	-0.640841
999	-0.00271082	-3.45446e-05	0.045805	14.3434	1.29566	0.816742	0.0079298	-0.640848
1000	-0.00269849	-3.44541e-05	0.0480017	14.3512	1.28924	0.816715	0.00792946	-0.640855
1001	-0.00268582	-3.43397e-05	0.0502488	14.3591	1.28283	0.816688	0.00792911	-0.640862
1002	-0.00267291	-3.42124e-05	0.0525462	14.3669	1.27642	0.816661	0.00792877	-0.640868
1003	-0.00265987	-3.40791e-05	0.0548937	14.3748	1.27001	0.816634	0.00792843	-0.640875
1004	-0.0026468	-3.39433e-05	0.0572913	14.3826	1.26359	0.816608	0.00792809	-0.640882
1005	-0.00263376	-3.38065e-05	0.0597388	14.3904	1.25718	0.816582	0.00792775	-0.640888
1006	-0.00262076	-3.36689e-05	0.0622362	14.3982	1.25077	0.816555	0.00792742	-0.640895
1007	-0.00260783	-3.35302e-05	0.0647834	14.4059	1.24436	0.816529	0.00792708	-0.640902
1008	-0.00259496	-3.33903e-05	0.0673802	14.4137	1.23794	0.816503	0.00792675	-0.640908
1009	-0.00258214	-3.3249e-05	0.0700265	14.4214	1.23153	0.816478	0.00792642	-0.640915
1010	-0.00256936	-3.31062e-05	0.0727222	14.4291	1.22512	0.816452	0.00792608	-0.640922
1011	-0.0025566	-3.29619e-05	0.0754673	14.4368	1.2187	0.816426	0.00792575	-0.640928
1012	-0.00254387	-3.28164e-05	0.0782615	14.4445	1.21229	0.816401	0.00792543	-0.640935
1013	-0.00253117	-3.26697e-05	0.0811048	14.4521	1.20587	0.816376	0.0079251	-0.640941
1014	-0.00251848	-3.2522e-05	0.083997	14.4598	1.19946	0.81635	0.00792477	-0.640948
1015	-0.00250582	-3.23735e-05	0.0869381	14.4674	1.19305	0.816325	0.00792445	-0.640954
1016	-0.00249317	-3.22241e-05	0.0899279	14.475	1.18663	0.8163	0.00792413	-0.640961
1017	-0.00248055	-3.2074e-05	0.0929663	14.4826	1.18022	0.816276	0.00792381	-0.640967
1018	-0.00246795	-3.19232e-05	0.0960531	14.4902	1.1738	0.816251	0.00792349	-0.640974
1019	-0.00245538	-3.17717e-05	0.0991882	14.4977	1.16739	0.816226	0.00792317	-0.64098
1020	-0.00244284	-3.16196e-05	0.102371	14.5052	1.16097	0.816202	0.00792285	-0.640987
1021	-0.00243032	-3.14669e-05	0.105603	14.5127	1.15456	0.816178	0.00792254	-0.640993
1022	-0.00241782	-3.13135e-05	0.108882	14.5202	1.14814	0.816153	0.00792223	-0.640999
1023	-0.00240536	-3.11596e-05	0.112209	14.5277	1.14173	0.816129	0.00792192	-0.641006
1024	-0.00239292	-3.1005e-05	0.115584	14.5351	1.13531	0.816105	0.00792161	-0.641012
1025	-0.0023805	-3.08499e-05	0.119006	14.5425	1.1289	0.816082	0.0079213	-0.641018
1026	-0.00236811	-3.06941e-05	0.122476	14.5499	1.12248	0.816058	0.00792099	-0.641024
1027	-0.00235575	-3.05378e-05	0.125992	14.5573	1.11607	0.816034	0.00792068	-0.641031
1028	-0.00234341	-3.03808e-05	0.129556	14.5646	1.10965	0.816011	0.00792038	-0.641037
1029	-0.0023311	-3.02233e-05	0.133167	14.5719	1.10324	0.815988	0.00792008	-0.641043
1030	-0.00231882	-3.00652e-05	0.136824	14.5792	1.09682	0.815964	0.00791978	-0.641049
1031	-0.00230657	-2.99066e-05	0.140528	14.5865	1.0904	0.815941	0.00791948	-0.641055
1032	-0.00229434	-2.97473e-05	0.144279	14.5938	1.08399	0.815918	0.00791918	-0.641061
1033	-0.00228213	-2.95875e-05	0.148076	14.601	1.07757	0.815896	0.00791889	-0.641067
1034	-0.00226996	-2.94272e-05	0.151918	14.6082	1.07116	0.815873	0.00791859	-0.641073
1035	-0.00225781	-2.92662e-05	0.155807	14.6154	1.06474	0.81585	0.0079183	-0.641079
1036	-0.00224569	-2.91047e-05	0.159742	14.6225	1.05832	0.815828	0.00791801	-0.641085
1037	-0.0022336	-2.89427e-05	0.163722	14.6296	1.05191	0.815806	0.00791772	-0.641091
1038	-0.00222153	-2.87801e-05	0.167748	14.6367	1.04549	0.815783	0.00791743	-0.641097
1039	-0.00220949	-2.86169e-05	0.171819	14.6438	1.03908	0.815761	0.00791714	-0.641103
1040	-0.00219748	-2.84532e-05	0.175936	14.6509	1.03266	0.815739	0.00791686	-0.641109
1041	-0.0021855	-2.8289e-05	0.180097	14.6579	1.02624	0.815717	0.00791658	-0.641114
1042	-0.00217354	-2.81242e-05	0.184303	14.6649	1.01983	0.815696	0.0079163	-0.64112
1043	-0.00216161	-2.79589e-05	0.188554	14.6718	1.01341	0.815674	0.00791602	-0.641126
1044	-0.00214971	-2.77931e-05	0.192849	14.6788	1.00699	0.815653	0.00791574	-0.641131
1045	-0.00213784	-2.76267e-05	0.197188	14.6857	1.00058	0.815631	0.00791546	-0.641137
1046	-0.00212599	-2.74598e-05	0.201572	14.6926	0.994159	0.81561	0.00791519	-0.641142
1047	-0.00211417	-2.72923e-05	0.205999	14.6994	0.987742	0.815589	0.00791491	-0.641148
1048	-0.00210238	-2.71244e-05	0.21047	14.7063	0.981325	0.815568	0.00791464	-0.641153
1049	-0.00209062	-2.69559e-05	0.214985	14.7131	0.974908	0.815547	0.00791437	-0.641159
1050	-0.00207889	-2.67869e-05	0.219542	14.7198	0.968491	0.815526	0.00791411	-0.641164
1051	-0.00206718	-2.66174e-05	0.224144	14.7266	0.962074	0.815505	0.00791384	-0.64117
1052	-0.0020555	-2.64474e-05	0.228788	14.7333	0.955657	0.815485	0.00791357	-0.641175
1053	-0.00204385	-2.62769e-05	0.233474	14.7399	0.94924	0.815464	0.00791331	-0.64118
1054	-0.00203222	-2.61059e-05	0.238204	14.7466	0.942822	0.815444	0.00791305	-0.641185
1055	-0.00202062	-2.59344e-05	0.242976	14.7532	0.936405	0.815424	0.00791279	-0.64119
1056	-0.00200905	-2.57624e-05	0.24779	14.7598	0.929988	0.815404	0.00791253	-0.641196
1057	-0.00199751	-2.55899e-05	0.252645	14.7663	0.923571	0.815384	0.00791228	-0.641201
1058	-0.001986	-2.54169e-05	0.257543	14.7729	0.917154	0.815364	0.00791202	-0.641206
1059	-0.00197451	-2.52434e-05	0.262482	14.7794	0.910737	0.815344	0.00791177	-0.641211
1060	-0.00196305	-2.50694e-05	0.267463	14.7858	0.904319	0.815325	0.00791152	-0.641215
1061	-0.00195162	-2.4895e-05	0.272485	14.7922	0.897902	0.815305	0.00791127	-0.64122
1062	-0.00194021	-2.47201e-05	0.277548	14.7986	0.891485	0.815286	0.00791102	-0.641225
1063	-0.00192883	-2.45447e-05	0.282651	14.805	0.885068	0.815266	0.00791078	-0.64123
1064	-0.00191748	-2.43689e-05	0.287795	14.8113	0.87865	0.815247	0.00791054	-0.641235
1065	-0.00190615	-2.41926e-05	0.29298	14.8176	0.872233	0.815228	0.00791029	-0.641239
1066	-0.00189485	-2.40158e-05	0.298204	14.8239	0.865816	0.815209	0.00791005	-0.641244
1067	-0.00188358	-2.38385e-05	0.303469	14.8301	0.859399	0.81519	0.00790981	-0.641248
1068	-0.00187234	-2.36608e-05	0.308773	14.8363	0.852982	0.815172	0.00790958	-0.641253
1069	-0.00186112	-2.34827e-05	0.314116	14.8425	0.846564	0.815153	0.00790934	-0.641257
1070	-0.00184993	-2.33041e-05	0.319499	14.8486	0.840147	0.815135	0.00790911	-0.641262
1071	-0.00183876	-2.31251e-05	0.324921	14.8547	0.83373	0.815116	0.00790888	-0.641266
1072	-0.00182762	-2.29456e-05	0.330381	14.8607	0.827313	0.815098	0.00790865	-0.64127
1073	-0.00181651	-2.27657e-05	0.33588	14.8667	0.820896	0.81508	0.00790842	-0.641274
1074	-0.00180542	-2.25853e-05	0.341418	14.8727	0.814479	0.815062	0.0079082	-0.641279
1075	-0.00179436	-2.24046e-05	0.346993	14.8787	0.808062	0.815044	0.00790797	-0.641283
1076	-0.00178332	-2.22234e-05	0.352607	14.8846	0.801645	0.815026	0.00790775	-0.641287
1077	-0.00177231	-2.20417e-05	0.358258	14.8905	0.795228	0.815008	0.00790753	-0.641291
1078	-0.00176133	-2.18597e-05	0.363946	14.8963	0.788811	0.814991	0.00790731	-0.641295
1079	-0.00175037	-2.16772e-05	0.369672	14.9021	0.782394	0.814973	0.00790709	-0.641298
1080	-0.00173943	-2.14943e-05	0.375434	14.9079	0.775977	0.814956	0.00790688	-0.641302
1081	-0.00172852	-2.1311e-05	0.381234	14.9136	0.76956	0.814938	0.00790667	-0.641306
1082	-0.00171763	-2.11273e-05	0.387069	14.9193	0.763143	0.814921	0.00790645	-0.64131
1083	-0.00170677	-2.09432e-05	0.392941	14.9249	0.756726	0.814904	0.00790625	-0.641313
1084	-0.00169594	-2.07587e-05	0.398849	14.9306	0.750309	0.814887	0.00790604	-0.641317
1085	-0.00168512	-2.05739e-05	0.404793	14.9361	0.743893	0.81487	0.00790583	-0.64132
1086	-0.00167433	-2.03886e-05	0.410772	14.9417	0.737476	0.814854	0.00790563	-0.641324
1087	3.70841	0.280367	0.41704	14.9474	0.731708	0.851938	0.0107093	-0.575319
1088	3.43475	0.165398	0.423583	14.9534	0.726635	0.886285	0.0123633	-0.505295
1089	3.31297	0.0811541	0.430394	14.9596	0.722279	0.919415	0.0131748	-0.433779
1090	3.38926	0.0200936	0.437482	14.966	0.718638	0.953307	0.0133758	-0.363419
1091	3.8006	-0.0208039	0.444877	14.9726	0.715667	0.991313	0.0131677	-0.298542
1092	3.96449	-0.0523519	0.452591	14.9794	0.713352	1.03096	0.0126442	-0.23591
1093	4.02536	-0.0787421	0.460629	14.9865	0.711692	1.07121	0.0118568	-0.174183
1094	4.04284	-0.102025	0.46899	14.9938	0.710693	1.11164	0.0108365	-0.112813
1095	3.96647	-0.182328	0.477671	15.0014	0.710354	1.1513	0.00901325	-0.0526101
1096	1.84894	-0.47397	0.48653	15.0091	0.710378	1.16979	0.00427356	-0.0222108
1097	-5.93689	-0.460084	0.494946	15.0163	0.710319	1.11043	-0.000327284	-0.0132362
1098	-1.56005	-0.103327	0.503256	15.0234	0.710203	1.09482	-0.00136055	-0.00958991
1099	2.42153	0.205901	0.511749	15.0307	0.710073	1.11904	0.000698462	-0.00839249
1100	5.30291	0.422661	0.520626	15.0384	0.709955	1.17207	0.00492507	-0.0078163
1101	6.97459	0.545064	0.530002	15.0466	0.709858	1.24182	0.0103757	-0.00700481
1102	7.68124	0.594505	0.539924	15.0553	0.709787	1.31863	0.0163208	-0.005757
1103	7.61025	0.411123	0.550395	15.0646	0.709751	1.39473	0.020432	-0.0029909
1104	5.21116	-1.00576	0.561325	15.0741	0.709735	1.44684	0.0103744	-0.000884053
1105	2.8682	-0.509764	0.572506	15.0838	0.709724	1.47552	0.00527674	-9.62595e-05
1106	1.66357	-0.262536	0.58383	15.0935	0.709714	1.49216	0.00265138	9.31505e-05
1107	0.923203	-0.137133	0.595233	15.1033	0.709703	1.50139	0.00128004	6.53048e-05
1108	0.421342	-0.0721278	0.606672	15.1131	0.709694	1.50561	0.000558762	5.67309e-06
1109	0.170621	-0.0380935	0.618126	15.123	0.709685	1.50731	0.000177827	-1.75418e-05
1110	0.0733753	-0.0178846	0.629585	15.1328	0.709677	1.50804	-1.01848e-06	-2.19239e-05
1111	0.0340648	-0.00650116	0.641047	15.1426	0.709669	1.50839	-6.60301e-05	-1.80152e-05
1112	0.0170074	-0.000743574	0.652509	15.1525	0.709661	1.50856	-7.34659e-05	-1.18087e-05
1113	0.0088595	0.0016167	0.663972	15.1623	0.709653	1.50864	-5.72988e-05	-6.22633e-06
1114	0.00465514	0.00212595	0.675434	15.1721	0.709645	1.50869	-3.60394e-05	-2.29597e-06
1115	0.00247248	0.00179113	0.686896	15.182	0.709637	1.50872	-1.81281e-05	-3.45004e-08
1116	0.00145993	0.00120316	0.698358	15.1918	0.70963	1.50873	-6.09648e-06	9.60924e-07
1117	0.00114622	0.000658188	0.70982	15.2016	0.709622	1.50874	4.854e-07	1.1701e-06
1118	0.00122013	0.000265914	0.721282	15.2115	0.709614	1.50875	3.14454e-06	9.88651e-07
1119	0.00146713	3.42706e-05	0.732744	15.2213	0.709607	1.50877	3.48725e-06	6.80625e-07
1120	0.0017487	-7.26571e-05	0.744206	15.2311	0.709599	1.50879	2.76067e-06	3.90159e-07
1121	0.00198804	-0.000100408	0.755668	15.241	0.709592	1.50881	1.7566e-06	1.75341e-07
1122	0.00215433	-8.75698e-05	0.76713	15.2508	0.709584	1.50883	8.80898e-07	4.33647e-08
1123	0.00224648	-6.04617e-05	0.778592	15.2606	0.709577	1.50885	2.7628e-07	-2.22072e-08
1124	0.00227898	-3.38193e-05	0.790054	15.2705	0.70957	1.50887	-6.19125e-08	-4.4089e-08
1125	0.00227144	-1.38654e-05	0.801516	15.2803	0.709562	1.5089	-2.00566e-07	-4.23145e-08
1126	0.0022421	-1.66668e-06	0.812978	15.2901	0.709555	1.50892	-2.17233e-07	-3.10253e-08
1127	0.00220473	4.18835e-06	0.82444	15.3	0.709548	1.50894	-1.75349e-07	-1.84892e-08
1128	0.00216793	5.84259e-06	0.835902	15.3098	0.709541	1.50896	-1.16924e-07	-8.50333e-09
1129	0.00213589	5.241e-06	0.847364	15.3196	0.709534	1.50898	-6.45135e-08	-2.05644e-09
1130	0.00210964	3.77612e-06	0.858826	15.3295	0.709527	1.509	-2.67523e-08	1.29268e-09
1131	0.00208841	2.26662e-06	0.870287	15.3393	0.70952	1.50902	-4.08606e-09	2.48596e-09
1132	0.00207068	1.08497e-06	0.881749	15.3491	0.709514	1.50905	6.76364e-09	2.45073e-09
1133	0.00205487	3.19493e-07	0.893211	15.359	0.709507	1.50907	9.95856e-09	1.88363e-09
1134	0.00203972	-8.73162e-08	0.904673	15.3688	0.7095	1.50909	9.0854e-09	1.21424e-09
1135	0.00202444	-2.43725e-07	0.916135	15.3786	0.709493	1.50911	6.64815e-09	6.53936e-10
1136	0.00200861	-2.55097e-07	0.927597	15.3885	0.709487	1.50913	4.09718e-09	2.6923e-10
1137	0.00199213	-2.00998e-07	0.939059	15.3983	0.70948	1.50915	2.0872e-09	4.81055e-11
1138	0.00197509	-1.31234e-07	0.950521	15.4081	0.709474	1.50917	7.74858e-10	-5.25784e-11
1139	0.00195763	-7.10238e-08	0.961983	15.418	0.709467	1.50919	6.46202e-11	-7.93622e-11
1140	0.00193992	-2.90284e-08	0.973445	15.4278	0.709461	1.50921	-2.25664e-10	-6.92328e-11
1141	0.0019221	-4.69761e-09	0.984907	15.4376	0.709455	1.50922	-2.7264e-10	-4.65906e-11
1142	0.00190426	6.35939e-09	0.996369	15.4475	0.709449	1.50924	-2.09046e-10	-2.45155e-11
1143	0.00188645	9.17021e-09	1.00783	15.4573	0.709442	1.50926	-1.17344e-10	-8.36125e-12
1144	0.0018687	7.84952e-09	1.01929	15.4672	0.709436	1.50928	-3.88488e-11	1.16597e-12
1145	0.00185099	5.13194e-09	1.03075	15.477	0.70943	1.5093	1.24706e-11	5.4005e-12
1146	0.00183332	2.5231e-09	1.04222	15.4868	0.709424	1.50932	3.77016e-11	6.21096e-12
1147	0.00181567	6.28653e-10	1.05368	15.4967	0.709418	1.50934	4.39881e-11	5.2812e-12
1148	0.00179804	-4.60132e-10	1.06514	15.5065	0.709412	1.50935	3.93868e-11	3.77855e-12
1149	0.0017804	-9.11826e-10	1.0766	15.5163	0.709407	1.50937	3.02686e-11	2.36017e-12
1150	0.00176276	-9.54903e-10	1.08806	15.5262	0.709401	1.50939	2.07195e-11	1.27952e-12
1151	0.00174512	-7.92222e-10	1.09953	15.536	0.709395	1.50941	1.27973e-11	5.37641e-13
1152	0.00172747	-5.69667e-10	1.11099	15.5458	0.709389	1.50942	7.10065e-12	1.25503e-13
1153	0.00170981	-3.615e-10	1.12245	15.5557	0.709384	1.50944	3.48566e-12	-3.45946e-14
1154	0.00169216	-2.03104e-10	1.13391	15.5655	0.709378	1.50946	1.45461e-12	-7.77243e-14
1155	0.0016745	-9.31366e-11	1.14537	15.5753	0.709373	1.50948	5.23248e-13	-5.11484e-14
1156	0.00165684	-3.43725e-11	1.15684	15.5852	0.709367	1.50949	1.79523e-13	-4.92486e-14
1157	0.00163918	-8.32667e-12	1.1683	15.595	0.709362	1.50951	9.62563e-14	-1.6747e-15
1158	0.00162152	3.37508e-12	1.17976	15.6048	0.709357	1.50952	1.30007e-13	2.09425e-14
1159	0.00160386	5.4956e-12	1.19122	15.6147	0.709351	1.50954	1.84963e-13	1.44548e-14
1160	0.0015862	5.18474e-12	1.20268	15.6245	0.709346	1.50956	2.36811e-13	1.29257e-14
1161	0.00156855	4.88498e-13	1.21415	15.6343	0.709341	1.50957	2.41696e-13	6.47137e-15
1162	0.00155089	-2.67564e-12	1.22561	15.6442	0.709336	1.50959	2.14939e-13	-1.25144e-14
1163	0.00153323	-4.58522e-12	1.23707	15.654	0.709331	1.5096	1.69087e-13	-3.10523e-14
1164	0.00151557	-7.56062e-12	1.24853	15.6638	0.709326	1.50962	9.34808e-14	-2.53419e-14
1165	0.00149791	-6.27276e-12	1.25999	15.6737	0.709321	1.50963	3.07532e-14	-1.67433e-14
1166	0.00148025	-4.66294e-12	1.27146	15.6835	0.709316	1.50965	-1.58762e-14	1.60451e-15
1167	0.00146259	-1.5099e-12	1.28292	15.6933	0.709312	1.50966	-3.09752e-14	1.73659e-14
1168	0.00144493	-1.06581e-12	1.29438	15.7032	0.709307	1.50968	-4.16334e-14	2.7257e-14
1169	0.00142727	-7.88258e-13	1.30584	15.713	0.709302	1.50969	-4.95159e-14	4.52554e-14
1170	0.00140961	3.9968e-13	1.3173	15.7228	0.709298	1.50971	-4.55191e-14	1.91212e-14
1171	0.00139195	-9.76996e-13	1.32877	15.7327	0.709293	1.50972	-5.52891e-14	3.59208e-14
1172	0.00137429	1.72085e-12	1.34023	15.7425	0.709288	1.50973	-3.80806e-14	4.91434e-14
1173	0.00135663	-4.26326e-12	1.35169	15.7523	0.709284	1.50975	-8.07132e-14	3.87329e-14
1174	0.00133897	2.68674e-12	1.36315	15.7622	0.70928	1.50976	-5.38458e-14	2.99154e-14
1175	0.00132131	1.9873e-12	1.37461	15.772	0.709275	1.50977	-3.39728e-14	4.72511e-14
1176	0.00130365	-2.53131e-12	1.38607	15.7818	0.709271	1.50979	-5.92859e-14	5.27701e-14
1177	0.00128599	4.11893e-12	1.39754	15.7917	0.709267	1.5098	-1.80966e-14	3.92457e-14
1178	0.00126833	-7.43849e-13	1.409	15.8015	0.709263	1.50981	-2.55351e-14	4.64111e-14
1179	0.00125067	3.66374e-13	1.42046	15.8114	0.709259	1.50982	-2.18714e-14	2.46373e-14
1180	0.001233	-1.64313e-12	1.43192	15.8212	0.709255	1.50984	-3.83027e-14	6.39859e-15
1181	0.00121534	1.25455e-12	1.44338	15.831	0.709251	1.50985	-2.57572e-14	1.19147e-14
1182	0.00119768	-1.32117e-12	1.45485	15.8409	0.709247	1.50986	-3.89688e-14	3.23041e-14
1183	0.00118002	1.4877e-12	1.46631	15.8507	0.709243	1.50987	-2.40918e-14	4.20035e-14
1184	0.00116236	-2.10942e-13	1.47777	15.8605	0.709239	1.50988	-2.62013e-14	2.3461e-14
1185	0.00114469	-1.57652e-12	1.48923	15.8704	0.709235	1.5099	-4.19664e-14	3.63182e-14
1186	0.00112703	1.68754e-12	1.50069	15.8802	0.709232	1.50991	-2.5091e-14	4.7155e-14
1187	0.00110937	1.55431e-13	1.51216	15.89	0.709228	1.50992	-2.35367e-14	2.42215e-14
1188	0.00109171	-1.36557e-12	1.52362	15.8999	0.709224	1.50993	-3.71925e-14	3.25458e-14
1189	0.00107404	-2.9865e-12	1.53508	15.9097	0.709221	1.50994	-6.70575e-14	3.49865e-14
1190	0.00105638	5.24025e-12	1.54654	15.9195	0.709217	1.50995	-1.46549e-14	4.66364e-15
1191	-3.69219	-0.123818	1.55774	15.9291	0.708538	1.47303	-0.00123818	-0.0661177
1192	-3.39766	0.00951635	1.56869	15.9384	0.707151	1.43905	-0.00114301	-0.135828
1193	-3.26849	0.0896427	1.5794	15.9476	0.705052	1.40637	-0.000246587	-0.206885
1194	-3.33942	0.132196	1.58987	15.9564	0.702262	1.37297	0.00107537	-0.276817
1195	-3.76058	0.143971	1.60008	15.965	0.698849	1.33537	0.00251508	-0.341144
1196	-3.93248	0.141657	1.61001	15.9734	0.694843	1.29604	0.00393166	-0.403081
1197	-4.00187	0.132301	1.61967	15.9814	0.690264	1.25602	0.00525467	-0.463932
1198	-4.03029	0.119193	1.62904	15.9892	0.685125	1.21572	0.00644659	-0.52421
1199	-3.98314	0.153381	1.63815	15.9966	0.679449	1.17589	0.0079804	-0.58324
1200	-2.20846	0.197898	1.64712	16.0039	0.673494	1.1538	0.00995938	-0.616423
1201	-10.3477	1.38248	1.65526	16.0106	0.667533	1.05033	0.0237842	-0.608281
1202	-7.50751	0.44095	1.66283	16.0168	0.6615	0.975252	0.0281937	-0.607014
1203	-5.84943	-0.188294	1.66997	16.0226	0.655358	0.916758	0.0263107	-0.612586
1204	-5.02659	-0.475087	1.67676	16.0281	0.649121	0.866492	0.0215598	-0.61943
1205	-4.15172	-0.60109	1.68327	16.0331	0.64279	0.824975	0.0155489	-0.628248
1206	-2.37352	-0.403407	1.68964	16.038	0.636385	0.80124	0.0115149	-0.635602
1207	-0.830327	-0.192809	1.69599	16.0427	0.629956	0.792937	0.00958678	-0.638473
1208	-0.362116	-0.105427	1.70234	16.0474	0.623518	0.789315	0.00853251	-0.639709
1209	-0.178238	-0.0557048	1.70872	16.052	0.617076	0.787533	0.00797546	-0.640257
1210	-0.09757	-0.027161	1.71512	16.0566	0.610633	0.786557	0.00770385	-0.640518
1211	-0.0553536	-0.0112454	1.72156	16.0611	0.604191	0.786004	0.0075914	-0.640655
1212	-0.0296088	-0.00301604	1.72802	16.0656	0.597748	0.785708	0.00756124	-0.640739
1213	-0.0130839	0.000659636	1.73451	16.07	0.591307	0.785577	0.00756784	-0.640797
1214	-0.00299287	0.00182726	1.74102	16.0744	0.584866	0.785547	0.00758611	-0.640843
1215	0.00235846	0.00178443	1.74757	16.0788	0.578427	0.785571	0.00760395	-0.640881
1216	0.00442834	0.00129523	1.75414	16.0831	0.571988	0.785615	0.00761691	-0.640916
1217	0.00450089	0.000757619	1.76074	16.0874	0.56555	0.78566	0.00762448	-0.640948
1218	0.00359235	0.000338085	1.76736	16.0916	0.559113	0.785696	0.00762786	-0.640979
1219	0.00240027	7.32294e-05	1.77401	16.0958	0.552678	0.78572	0.0076286	-0.641008
1220	0.00132416	-6.08639e-05	1.78069	16.1	0.546243	0.785733	0.00762799	-0.641037
1221	0.000532568	-0.000106721	1.7874	16.1041	0.539809	0.785738	0.00762692	-0.641064
1222	4.41663e-05	-0.000104034	1.79413	16.1081	0.533376	0.785739	0.00762588	-0.64109
1223	-0.00019988	-8.15312e-05	1.80089	16.1121	0.526943	0.785737	0.00762506	-0.641116
1224	-0.000283245	-5.62719e-05	1.80767	16.1161	0.520512	0.785734	0.0076245	-0.64114
1225	-0.000282983	-3.61872e-05	1.81447	16.12	0.514082	0.785731	0.00762414	-0.641163
1226	-0.000255543	-2.33796e-05	1.82131	16.1239	0.507653	0.785729	0.00762391	-0.641186
1227	-0.000234532	-1.69436e-05	1.82816	16.1278	0.501224	0.785726	0.00762374	-0.641207
1228	-0.000234789	-1.49009e-05	1.83504	16.1316	0.494797	0.785724	0.00762359	-0.641227
1229	-0.000258639	-1.52918e-05	1.84195	16.1353	0.48837	0.785721	0.00762343	-0.641246
1230	-0.000301803	-1.66414e-05	1.84888	16.139	0.481944	0.785718	0.00762327	-0.641264
1231	-0.000357795	-1.80438e-05	1.85583	16.1427	0.475519	0.785715	0.00762309	-0.641281
1232	-0.000420564	-1.90629e-05	1.8628	16.1463	0.469095	0.785711	0.0076229	-0.641296
1233	-0.000485679	-1.9576e-05	1.8698	16.1499	0.462672	0.785706	0.0076227	-0.641311
1234	-0.000550522	-1.96307e-05	1.87682	16.1534	0.45625	0.7857	0.0076225	-0.641325
1235	-0.000613961	-1.93419e-05	1.88387	16.1569	0.449828	0.785694	0.00762231	-0.641337
1236	-0.000675834	-1.88296e-05	1.89093	16.1603	0.443407	0.785687	0.00762212	-0.641349
1237	-0.000736481	-1.81908e-05	1.89802	16.1637	0.436987	0.78568	0.00762194	-0.641359
1238	-0.000796392	-1.74915e-05	1.90513	16.1671	0.430568	0.785672	0.00762177	-0.641368
1239	-0.00085601	-1.67704e-05	1.91226	16.1704	0.42415	0.785663	0.0076216	-0.641376
1240	-0.00091564	-1.60463e-05	1.91941	16.1737	0.417732	0.785654	0.00762144	-0.641383
1241	-0.000975449	-1.5326e-05	1.92658	16.1769	0.411315	0.785644	0.00762128	-0.641389
1242	-0.00103549	-1.46098e-05	1.93377	16.18	0.404898	0.785634	0.00762114	-0.641394
1243	-0.00109577	-1.38959e-05	1.94098	16.1831	0.398483	0.785623	0.007621	-0.641398
1244	-0.00115622	-1.31819e-05	1.94821	16.1862	0.392068	0.785612	0.00762087	-0.641401
1245	-0.00121683	-1.24664e-05	1.95546	16.1892	0.385653	0.785599	0.00762074	-0.641402
1246	-0.00127753	-1.17485e-05	1.96273	16.1922	0.37924	0.785587	0.00762063	-0.641403
1247	-0.00133832	-1.10281e-05	1.97002	16.1952	0.372826	0.785573	0.00762051	-0.641402
1248	-0.00139918	-1.03054e-05	1.97732	16.198	0.366414	0.785559	0.00762041	-0.6414
1249	-0.00146009	-9.58092e-06	1.98465	16.2009	0.360002	0.785545	0.00762032	-0.641397
1250	-0.00152107	-8.85509e-06	1.99199	16.2037	0.35359	0.785529	0.00762023	-0.641393
1251	-0.00158209	-8.12829e-06	1.99935	16.2064	0.347179	0.785514	0.00762015	-0.641388
1252	-0.00164316	-7.40084e-06	2.00673	16.2091	0.340768	0.785497	0.00762007	-0.641382
1253	-0.00170427	-6.67297e-06	2.01413	16.2118	0.334358	0.78548	0.00762001	-0.641375
1254	-0.00176541	-5.94482e-06	2.02154	16.2144	0.327948	0.785462	0.00761995	-0.641366
1255	-0.00182658	-5.2165e-06	2.02897	16.2169	0.321538	0.785444	0.00761989	-0.641356
1256	-0.00188777	-4.48807e-06	2.03641	16.2194	0.315129	0.785425	0.00761985	-0.641346
1257	-0.00194896	-3.75958e-06	2.04387	16.2219	0.30872	0.785406	0.00761981	-0.641334
1258	-0.00201015	-3.03105e-06	2.05135	16.2243	0.302312	0.785386	0.00761978	-0.641321
1259	-0.00207133	-2.30251e-06	2.05884	16.2267	0.295903	0.785365	0.00761976	-0.641307
1260	-0.00213249	-1.574e-06	2.06635	16.229	0.289495	0.785344	0.00761974	-0.641292
1261	-0.00219363	-8.45507e-07	2.07387	16.2312	0.283087	0.785322	0.00761973	-0.641276
1262	-0.00225474	-1.17083e-07	2.0814	16.2335	0.276679	0.785299	0.00761973	-0.641258
1263	-0.0023158	6.11266e-07	2.08895	16.2356	0.270272	0.785276	0.00761974	-0.64124
1264	-0.00237682	1.33951e-06	2.09652	16.2378	0.263864	0.785252	0.00761975	-0.64122
1265	-0.00243778	2.06763e-06	2.10409	16.2398	0.257457	0.785228	0.00761977	-0.6412
1266	-0.00249868	2.79562e-06	2.11168	16.2418	0.251049	0.785203	0.0076198	-0.641178
1267	-0.0025595	3.52344e-06	2.11929	16.2438	0.244642	0.785177	0.00761984	-0.641155
1268	-0.00262025	4.25108e-06	2.1269	16.2458	0.238234	0.785151	0.00761988	-0.641131
1269	-0.00268091	4.97852e-06	2.13453	16.2476	0.231827	0.785124	0.00761993	-0.641106
1270	-0.00274147	5.70574e-06	2.14217	16.2495	0.225419	0.785097	0.00761999	-0.64108
1271	-0.00280194	6.43272e-06	2.14982	16.2512	0.219011	0.785069	0.00762005	-0.641052
1272	-0.00286229	7.15944e-06	2.15748	16.253	0.212603	0.78504	0.00762012	-0.641024
1273	-0.00292252	7.88589e-06	2.16516	16.2547	0.206195	0.785011	0.0076202	-0.640994
1274	-0.00298262	8.61205e-06	2.17284	16.2563	0.199786	0.784981	0.00762029	-0.640964
1275	-0.0030426	9.33788e-06	2.18054	16.2579	0.193378	0.784951	0.00762038	-0.640932
1276	-0.00310243	1.00634e-05	2.18824	16.2594	0.186968	0.78492	0.00762048	-0.640899
1277	-0.00316211	1.07885e-05	2.19595	16.2609	0.180559	0.784888	0.00762059	-0.640865
1278	-0.00322163	1.15133e-05	2.20368	16.2623	0.174149	0.784856	0.0076207	-0.64083
1279	-0.00328099	1.22377e-05	2.21141	16.2637	0.167739	0.784823	0.00762083	-0.640794
1280	-0.00334017	1.29617e-05	2.21915	16.265	0.161328	0.78479	0.00762096	-0.640757
1281	-0.00339918	1.36853e-05	2.2269	16.2663	0.154917	0.784756	0.00762109	-0.640718
1282	0.612109	-0.304407	2.23473	16.2675	0.148533	0.790877	0.00457703	-0.637425
1283	0.913212	0.0137069	2.24265	16.2687	0.142143	0.800009	0.0047141	-0.637782
1284	0.770738	0.0479324	2.25065	16.2699	0.135746	0.807716	0.00519342	-0.638347
1285	0.623073	0.0469567	2.25872	16.271	0.129344	0.813947	0.00566299	-0.638791
1286	0.485997	0.0528228	2.26685	16.272	0.122937	0.818807	0.00619121	-0.639248
1287	0.351166	0.053623	2.27502	16.2731	0.116524	0.822319	0.00672744	-0.639693
1288	0.228619	0.0486428	2.28322	16.274	0.110108	0.824605	0.00721387	-0.640084
1289	0.126987	0.0399112	2.29144	16.275	0.103689	0.825875	0.00761298	-0.640398
1290	0.0551532	0.0228454	2.29967	16.2759	0.0972685	0.826426	0.00784144	-0.640553
1291	0.0255684	0.0115818	2.3079	16.2767	0.0908472	0.826682	0.00795726	-0.640619
1292	0.0134271	0.00556065	2.31615	16.2775	0.0844258	0.826816	0.00801286	-0.640649
1293	0.00785468	0.00235901	2.32439	16.2782	0.0780043	0.826895	0.00803645	-0.640664
1294	0.00490948	0.000732261	2.33264	16.2789	0.0715828	0.826944	0.00804378	-0.640672
1295	0.0031925	-1.15842e-05	2.3409	16.2795	0.0651613	0.826976	0.00804366	-0.640677
1296	0.00218564	-0.000278689	2.34916	16.28	0.0587399	0.826998	0.00804087	-0.640682
1297	0.00165102	-0.000310809	2.35742	16.2806	0.0523185	0.827014	0.00803777	-0.640685
1298	0.00143484	-0.000247221	2.36569	16.281	0.0458971	0.827029	0.00803529	-0.640688
1299	0.001416	-0.000161806	2.37396	16.2814	0.0394758	0.827043	0.00803368	-0.640691
1300	0.00149929	-8.80233e-05	2.38223	16.2818	0.0330546	0.827058	0.0080328	-0.640694
1301	0.00161672	-3.6267e-05	2.39051	16.2821	0.0266334	0.827074	0.00803243	-0.640697
1302	0.00172652	-5.46236e-06	2.39879	16.2823	0.0202123	0.827091	0.00803238	-0.6407
1303	0.00180866	9.79991e-06	2.40706	16.2825	0.0137912	0.827109	0.00803248	-0.640703
1304	0.00185842	1.54068e-05	2.41534	16.2827	0.00737022	0.827128	0.00803263	-0.640706
1305	0.00188007	1.60409e-05	2.42362	16.2827	0.000949271	0.827147	0.00803279	-0.640709
1306	0.00188166	1.47723e-05	2.4319	16.2828	-0.00547162	0.827165	0.00803294	-0.640712
1307	0.00187156	1.32721e-05	2.44019	16.2828	-0.0118924	0.827184	0.00803307	-0.640715
1308	0.00185657	1.22354e-05	2.44847	16.2827	-0.0183132	0.827203	0.00803319	-0.640718
1309	0.00184123	1.17905e-05	2.45675	16.2826	-0.0247339	0.827221	0.00803331	-0.640721
1310	0.00182794	1.18069e-05	2.46503	16.2824	-0.0311545	0.827239	0.00803343	-0.640724
1311	0.00181752	1.20851e-05	2.4733	16.2822	-0.0375751	0.827258	0.00803355	-0.640727
1312	0.00180975	1.24528e-05	2.48158	16.2819	-0.0439956	0.827276	0.00803368	-0.64073
1313	0.00180394	1.27972e-05	2.48986	16.2815	-0.050416	0.827294	0.0080338	-0.640734
1314	0.00179932	1.30628e-05	2.49813	16.2811	-0.0568364	0.827312	0.00803393	-0.640737
1315	0.00179518	1.32361e-05	2.5064	16.2807	-0.0632567	0.82733	0.00803407	-0.64074
1316	0.00179107	1.33274e-05	2.51467	16.2802	-0.0696769	0.827348	0.0080342	-0.640743
1317	0.00178672	1.33564e-05	2.52293	16.2797	-0.076097	0.827365	0.00803433	-0.640746
1318	0.00178202	1.33438e-05	2.53119	16.2791	-0.0825171	0.827383	0.00803447	-0.640749
1319	0.00177699	1.33064e-05	2.53945	16.2784	-0.088937	0.827401	0.0080346	-0.640752
1320	0.0017717	1.3256e-05	2.5477	16.2777	-0.095357	0.827419	0.00803473	-0.640755
1321	0.00176621	1.31998e-05	2.55595	16.2769	-0.101777	0.827436	0.00803486	-0.640758
1322	0.00176061	1.31417e-05	2.56419	16.2761	-0.108197	0.827454	0.008035	-0.640762
1323	0.00175494	1.30832e-05	2.57243	16.2753	-0.114616	0.827472	0.00803513	-0.640765
1324	0.00174924	1.30246e-05	2.58066	16.2743	-0.121036	0.827489	0.00803526	-0.640768
1325	0.00174352	1.2966e-05	2.58889	16.2734	-0.127455	0.827506	0.00803539	-0.640771
1326	0.00173779	1.29069e-05	2.59711	16.2723	-0.133875	0.827524	0.00803552	-0.640774
1327	0.00173203	1.28473e-05	2.60532	16.2713	-0.140294	0.827541	0.00803564	-0.640777
1328	0.00172624	1.27871e-05	2.61353	16.2701	-0.146713	0.827558	0.00803577	-0.640781
1329	0.00172041	1.27262e-05	2.62173	16.2689	-0.153132	0.827576	0.0080359	-0.640784
1330	0.00171454	1.26648e-05	2.62992	16.2677	-0.159552	0.827593	0.00803603	-0.640787
1331	0.00170863	1.26028e-05	2.6381	16.2664	-0.165971	0.82761	0.00803615	-0.64079
1332	0.00170266	1.25404e-05	2.64628	16.2651	-0.172389	0.827627	0.00803628	-0.640793
1333	0.00169665	1.24777e-05	2.65445	16.2637	-0.178808	0.827644	0.0080364	-0.640797
1334	0.0016906	1.24147e-05	2.6626	16.2622	-0.185227	0.827661	0.00803653	-0.6408
1335	0.0016845	1.23514e-05	2.67075	16.2607	-0.191646	0.827678	0.00803665	-0.640803
1336	0.00167835	1.22878e-05	2.67889	16.2592	-0.198064	0.827694	0.00803677	-0.640806
1337	0.00167216	1.2224e-05	2.68702	16.2576	-0.204483	0.827711	0.00803689	-0.640809
1338	0.00166592	1.21599e-05	2.69514	16.2559	-0.210901	0.827728	0.00803702	-0.640813
1339	0.00165964	1.20957e-05	2.70325	16.2542	-0.217319	0.827744	0.00803714	-0.640816
1340	0.00165332	1.20312e-05	2.71134	16.2525	-0.223738	0.827761	0.00803726	-0.640819
1341	0.00164696	1.19664e-05	2.71943	16.2507	-0.230156	0.827777	0.00803738	-0.640822
1342	0.00164055	1.19014e-05	2.7275	16.2488	-0.236574	0.827794	0.0080375	-0.640825
1343	0.0016341	1.18362e-05	2.73556	16.2469	-0.242992	0.82781	0.00803761	-0.640829
1344	0.0016276	1.17708e-05	2.74361	16.2449	-0.249409	0.827826	0.00803773	-0.640832
1345	0.00162106	1.17051e-05	2.75165	16.2429	-0.255827	0.827843	0.00803785	-0.640835
1346	0.00161448	1.16393e-05	2.75967	16.2408	-0.262245	0.827859	0.00803797	-0.640838
1347	0.00160786	1.15732e-05	2.76768	16.2387	-0.268662	0.827875	0.00803808	-0.640841
1348	0.0016012	1.15068e-05	2.77568	16.2365	-0.27508	0.827891	0.0080382	-0.640845
1349	0.00159449	1.14403e-05	2.78366	16.2343	-0.281497	0.827907	0.00803831	-0.640848
1350	0.00158774	1.13736e-05	2.79163	16.232	-0.287914	0.827923	0.00803842	-0.640851
1351	0.00158095	1.13066e-05	2.79959	16.2297	-0.294332	0.827938	0.00803854	-0.640854
1352	0.00157411	1.12394e-05	2.80753	16.2273	-0.300749	0.827954	0.00803865	-0.640858
1353	0.00156724	1.1172e-05	2.81545	16.2249	-0.307166	0.82797	0.00803876	-0.640861
1354	0.00156032	1.11044e-05	2.82336	16.2224	-0.313583	0.827985	0.00803887	-0.640864
1355	0.00155337	1.10365e-05	2.83125	16.2199	-0.319999	0.828001	0.00803898	-0.640867
1356	0.00154637	1.09685e-05	2.83913	16.2173	-0.326416	0.828016	0.00803909	-0.640871
1357	0.00153933	1.09003e-05	2.84698	16.2147	-0.332833	0.828032	0.0080392	-0.640874
1358	0.00153225	1.08318e-05	2.85483	16.212	-0.339249	0.828047	0.00803931	-0.640877
1359	0.00152512	1.07632e-05	2.86265	16.2093	-0.345666	0.828062	0.00803942	-0.64088
1360	0.00151796	1.06943e-05	2.87046	16.2065	-0.352082	0.828078	0.00803952	-0.640883
1361	0.00151076	1.06253e-05	2.87825	16.2037	-0.358498	0.828093	0.00803963	-0.640887
1362	3.29127	-1.05194	2.88629	16.2006	-0.364322	0.861005	-0.00247978	-0.579554
1363	2.95782	-0.720549	2.89457	16.1973	-0.369518	0.890584	-0.00968527	-0.514535
1364	2.8282	-0.518158	2.90308	16.1938	-0.374074	0.918866	-0.0148669	-0.447853
1365	2.34725	-0.883796	2.91175	16.1901	-0.37833	0.942338	-0.0237048	-0.421039
1366	2.89849	-0.362609	2.92066	16.1862	-0.382448	0.971323	-0.0273309	-0.409921
1367	3.47993	0.218066	2.92989	16.1822	-0.386503	1.00612	-0.0251502	-0.404966
1368	4.03928	0.374064	2.9395	16.178	-0.390451	1.04652	-0.0214096	-0.394812
1369	4.23969	0.238997	2.9495	16.1737	-0.394183	1.08891	-0.0190196	-0.37331
1370	4.17859	0.0698982	2.95988	16.1691	-0.397601	1.1307	-0.0183206	-0.341727
1371	4.16447	-0.0299072	2.97062	16.1644	-0.400644	1.17234	-0.0186197	-0.304215
1372	4.16225	-0.0712442	2.98173	16.1594	-0.403285	1.21397	-0.0193322	-0.263958
1373	4.14038	-0.0813873	2.9932	16.1543	-0.405517	1.25537	-0.020146	-0.222918
1374	4.09981	-0.0788204	3.00504	16.1489	-0.407342	1.29637	-0.0209342	-0.182184
1375	4.05138	-0.0744881	3.01724	16.1434	-0.408767	1.33688	-0.0216791	-0.14223
1376	4.00583	-0.0738022	3.0298	16.1377	-0.409801	1.37694	-0.0224171	-0.103144
1377	3.71942	0.298023	3.04271	16.1319	-0.410481	1.41413	-0.0194369	-0.0679107
1378	3.34794	0.725596	3.05595	16.126	-0.410853	1.44761	-0.012181	-0.0372676
1379	2.49672	0.643349	3.06944	16.1201	-0.411017	1.47258	-0.00574746	-0.0166189
1380	1.44411	0.320198	3.08308	16.1141	-0.411089	1.48702	-0.00254548	-0.00762295
1381	0.864694	0.14993	3.09681	16.1081	-0.41112	1.49567	-0.00104618	-0.00352049
1382	0.490707	0.0630291	3.11059	16.1021	-0.411131	1.50058	-0.000415892	-0.00155732
1383	0.229232	0.0238056	3.12438	16.0961	-0.411133	1.50287	-0.000177836	-0.000617383
1384	0.0942484	0.0120209	3.13819	16.0901	-0.411132	1.50381	-5.7627e-05	-0.000233531
1385	0.042111	0.00461946	3.152	16.0841	-0.411129	1.50423	-1.14324e-05	-8.19964e-05
1386	0.0207819	0.00081287	3.16581	16.0781	-0.411126	1.50444	-3.30375e-06	-2.54972e-05
1387	0.0111219	-0.00062869	3.17962	16.0721	-0.411122	1.50455	-9.59064e-06	-6.28249e-06
1388	0.00613977	-0.000794784	3.19342	16.066	-0.411119	1.50461	-1.75385e-05	-6.8794e-07
1389	0.00332334	-0.000448063	3.20724	16.06	-0.411115	1.50464	-2.20191e-05	5.13077e-07
1390	0.00172743	-2.5365e-05	3.22105	16.054	-0.411111	1.50466	-2.22728e-05	6.05642e-07
1391	0.000918004	0.000280938	3.23485	16.048	-0.411108	1.50467	-1.94634e-05	5.68406e-07
1392	0.000623113	0.000427929	3.24867	16.042	-0.411104	1.50468	-1.51841e-05	5.82018e-07
1393	0.000637061	0.000445017	3.26248	16.036	-0.411101	1.50468	-1.07339e-05	6.14611e-07
1394	0.000803276	0.000383512	3.27629	16.03	-0.411097	1.50469	-6.89879e-06	6.18963e-07
1395	0.00101307	0.000289974	3.2901	16.0239	-0.411094	1.5047	-3.99905e-06	5.77844e-07
1396	0.00120181	0.000196237	3.30391	16.0179	-0.41109	1.50471	-2.03668e-06	4.99196e-07
1397	0.00134021	0.000118981	3.31772	16.0119	-0.411087	1.50473	-8.46864e-07	4.01539e-07
1398	0.00142327	6.34737e-05	3.33153	16.0059	-0.411083	1.50474	-2.12126e-07	3.02957e-07
1399	0.0014597	2.81532e-05	3.34534	15.9999	-0.41108	1.50476	6.94057e-08	2.15894e-07
1400	0.00146357	8.42866e-06	3.35915	15.9939	-0.411076	1.50477	1.53692e-07	1.46298e-07
1401	0.00144886	-8.16489e-07	3.37296	15.9879	-0.411073	1.50479	1.45527e-07	9.49913e-08
1402	0.00142663	-3.91584e-06	3.38677	15.9819	-0.41107	1.5048	1.06369e-07	5.97031e-08
1403	0.00140408	-3.97008e-06	3.40058	15.9758	-0.411066	1.50481	6.66682e-08	3.68656e-08
1404	0.00138498	-2.89784e-06	3.41439	15.9698	-0.411063	1.50483	3.76897e-08	2.28376e-08
1405	0.00137047	-1.7069e-06	3.4282	15.9638	-0.41106	1.50484	2.06207e-08	1.45555e-08
1406	0.00136014	-8.07166e-07	3.44201	15.9578	-0.411056	1.50485	1.2549e-08	9.75232e-09
1407	0.00135287	-2.74765e-07	3.45582	15.9518	-0.411053	1.50487	9.80138e-09	6.91654e-09
1408	0.00134739	-3.70919e-08	3.46963	15.9458	-0.41105	1.50488	9.43046e-09	5.13316e-09
1409	0.00134266	1.71845e-08	3.48344	15.9398	-0.411046	1.5049	9.6023e-09	3.89986e-09
1410	0.00133794	-1.53216e-08	3.49725	15.9337	-0.411043	1.50491	9.44909e-09	2.9685e-09
1411	0.00133287	-7.02249e-08	3.51106	15.9277	-0.41104	1.50492	8.74684e-09	2.22949e-09
1412	0.0013273	-1.14045e-07	3.52487	15.9217	-0.411037	1.50494	7.60639e-09	1.63797e-09
1413	0.00132127	-1.35467e-07	3.53868	15.9157	-0.411033	1.50495	6.25171e-09	1.17314e-09
1414	0.0013149	-1.35831e-07	3.55249	15.9097	-0.41103	1.50496	4.8934e-09	8.19314e-10
1415	0.0013083	-1.21749e-07	3.5663	15.9037	-0.411027	1.50497	3.67592e-09	5.59694e-10
1416	0.0013016	-1.00515e-07	3.58011	15.8977	-0.411024	1.50499	2.67076e-09	3.7599e-10
1417	0.00129487	-7.7865e-08	3.59392	15.8916	-0.411021	1.505	1.89211e-09	2.50244e-10
1418	0.00128816	-5.73582e-08	3.60773	15.8856	-0.411018	1.50501	1.31853e-09	1.66511e-10
1419	0.0012815	-4.06505e-08	3.62154	15.8796	-0.411014	1.50503	9.12028e-10	1.11774e-10
